time, temp, ax, ay, az, gx, gy, gz, mx, my, mz,
3.646135e-03, 2.229392e+01, 1.101333e+00, 7.493851e-01, 1.075236e+01,-3.813611e+00, 2.989709e-01, 1.023216e-01,-2.145000e-05, -1.050000e-05, -2.325000e-05,
1.071906e-01, 2.234184e+01, 6.607997e-01, -1.702277e+00, 9.916783e+00,2.800521e-01, -1.526297e+00, 6.261868e-01,-2.025000e-05, -4.050000e-06, -1.860000e-05,
2.106278e-01, 2.215015e+01, 1.747767e+00, 1.896208e+00, 9.995792e+00,9.430107e-01, -2.931087e-01, -3.250842e-01,-1.470000e-05, -1.980000e-05, -2.460000e-05,
3.140790e-01, 2.210223e+01, 1.278504e+00, 2.236184e+00, 9.411607e+00,4.889587e-01, 3.517305e-02, -1.071179e-01,-1.740000e-05, -2.010000e-05, -2.595000e-05,
4.175987e-01, 2.243769e+01, 1.237802e+00, 1.740585e+00, 9.342175e+00,5.489127e-02, 4.567167e-01, -2.182328e-01,-1.590000e-05, -2.325000e-05, -2.655000e-05,
5.211322e-01, 2.243769e+01, 1.297657e+00, 1.510741e+00, 9.497798e+00,-1.182561e+00, 4.854947e-01, 4.324686e-01,-1.560000e-05, -1.830000e-05, -2.490000e-05,
6.245575e-01, 2.243769e+01, 1.436521e+00, -5.530606e-01, 1.021366e+01,-3.477868e+00, -3.090965e-01, 7.764717e-01,-1.635000e-05, -8.850000e-06, -2.190000e-05,
7.279632e-01, 2.258145e+01, 1.395820e+00, -3.538630e+00, 8.760384e+00,-3.982548e+00, 1.497519e-01, 1.188956e+00,-2.040000e-05, 4.650000e-06, -1.200000e-05,
8.314676e-01, 2.248561e+01, 2.418144e-01, -1.003170e+01, 3.667917e+00,-7.845455e+00, 2.663825e+00, 1.846585e-01,-2.715000e-05, 1.965000e-05, 2.745000e-05,
9.348946e-01, 2.224599e+01, -2.418144e-01, -5.403713e+00, -9.313444e+00,3.592181e+00, -1.476469e+00, -1.028012e+00,-2.595000e-05, -2.340000e-05, 8.205000e-05,
1.038357e+00, 2.243769e+01, -1.711854e+00, -4.177882e+00, -7.809886e+00,-3.560738e+00, -1.522034e+00, 1.263832e+00,-3.540000e-05, -3.120000e-05, 8.145000e-05,
1.142019e+00, 2.229392e+01, 5.578490e-01, 1.469322e+01, -3.663129e+00,-8.731443e+00, 5.185360e-01, 4.658830e+00,-1.800000e-05, -8.055000e-05, 2.385000e-05,
1.245608e+00, 2.243769e+01, 9.121908e-01, 8.159439e+00, 3.632004e+00,-8.459918e+00, -3.542086e+00, 2.308098e+00,-1.290000e-05, -7.200000e-05, -3.750000e-06,
1.349208e+00, 2.267730e+01, 3.888183e+00, 2.808399e+00, 1.213621e+01,-5.463813e+00, -1.305666e-01, 2.159146e+00,1.950000e-06, -3.900000e-05, -2.250000e-05,
1.452621e+00, 2.262938e+01, 4.247314e+00, 5.602432e-01, 1.062307e+01,1.658196e+00, -8.731976e-01, -1.434101e+00,0.000000e+00, 1.500000e-06, -1.335000e-05,
1.556038e+00, 2.234184e+01, 3.909731e+00, -3.447650e-01, 9.181763e+00,5.249311e-01, 1.457283e+00, 2.590015e-01,0.000000e+00, -3.000000e-06, -1.410000e-05,
1.660400e+00, 2.262938e+01, 3.552995e+00, 9.169792e-01, 1.012029e+01,6.268264e+00, 1.510576e+00, -8.124441e-01,-6.000000e-07, -1.335000e-05, -1.965000e-05,
1.764375e+00, 2.243769e+01, 2.401384e+00, 5.882553e+00, 9.536105e+00,6.244815e+00, 4.916233e-01, -1.686175e+00,-6.000000e-06, -3.795000e-05, -2.475000e-05,
1.867805e+00, 2.262938e+01, 2.322376e-01, 1.135091e+01, 2.540248e+00,2.378444e+00, 1.876962e+00, 2.629985e-01,-1.815000e-05, -7.365000e-05, -3.000000e-06,
1.971204e+00, 2.277315e+01, 3.351882e-01, 8.616732e+00, -2.523489e+00,-6.674885e-01, 3.783767e-02, -6.128637e-02,-2.145000e-05, -8.085000e-05, 1.485000e-05,
2.074858e+00, 2.267730e+01, 5.770026e-01, 1.036450e+01, -2.406173e+00,8.723982e-01, 3.170904e-02, -1.305666e-02,-2.100000e-05, -8.235000e-05, 2.055000e-05,
2.178242e+00, 2.243769e+01, 5.698200e-01, 8.437167e+00, -4.740519e+00,4.831231e+00, 1.143124e-01, -1.199081e-01,-2.025000e-05, -8.340000e-05, 3.015000e-05,
2.281712e+00, 2.248561e+01, 5.386954e-01, 7.972692e+00, -4.939238e+00,1.043734e+00, -2.784533e-01, -3.248178e-01,-2.085000e-05, -8.250000e-05, 3.870000e-05,
2.385160e+00, 2.262938e+01, -1.197101e-01, 6.636727e+00, -7.074866e+00,3.545816e+00, 9.488729e-01, -4.828300e-01,-2.265000e-05, -8.010000e-05, 4.845000e-05,
2.488559e+00, 2.258145e+01, 2.657564e-01, 3.720589e+00, -9.287108e+00,8.731176e+00, 6.605605e-01, 8.910506e-01,-2.265000e-05, -6.900000e-05, 6.480000e-05,
2.591952e+00, 2.248561e+01, 1.932121e+00, -6.447585e+00, -3.634398e+00,8.731176e+00, 1.352297e+00, 9.907075e-01,-2.025000e-05, -2.265000e-05, 7.860000e-05,
2.695354e+00, 2.267730e+01, 9.121908e-01, -8.274361e+00, -5.640739e+00,2.886055e+00, 9.944380e-01, 1.328582e+00,-1.710000e-05, -6.150000e-06, 7.695000e-05,
2.798842e+00, 2.267730e+01, -4.070143e-01, -8.145074e+00, -1.654393e+00,3.724346e+00, 1.639011e+00, 7.053262e-01,-1.695000e-05, 1.590000e-05, 5.460000e-05,
2.902256e+00, 2.258145e+01, -1.101333e-01, -1.065899e+01, 5.418078e+00,4.412885e+00, 4.641777e-01, -5.462481e-02,-1.620000e-05, 2.190000e-05, 2.520000e-05,
3.005682e+00, 2.286899e+01, 0.000000e+00, -7.733271e+00, 6.088455e+00,1.268095e+00, 7.450291e-01, -9.326187e-02,-1.335000e-05, 1.965000e-05, 1.290000e-05,
3.109137e+00, 2.267730e+01, 2.298434e-01, -7.321469e+00, 4.458003e+00,1.135130e-01, 9.648607e-01, 1.497519e-01,-1.275000e-05, 1.980000e-05, 1.350000e-05,
3.212522e+00, 2.282107e+01, -1.316811e-01, -6.835446e+00, 7.692570e+00,1.840723e+00, 4.449924e-01, -1.958499e-01,-1.365000e-05, 1.860000e-05, 7.500000e-06,
3.315960e+00, 2.282107e+01, -2.873042e-01, -2.913743e+00, 8.614338e+00,1.977418e+00, 7.063921e-01, -6.885391e-01,-9.900000e-06, 4.650000e-06, -1.155000e-05,
3.419380e+00, 2.262938e+01, 4.046201e-01, 1.934515e+00, 1.348654e+01,3.151718e+00, -2.166340e-01, 2.358992e+00,-9.600000e-06, -1.470000e-05, -2.280000e-05,
3.522829e+00, 2.286899e+01, 1.958457e+00, 3.294421e+00, 9.528923e+00,4.692937e+00, -8.731976e-01, -9.296876e-01,-1.350000e-06, -3.015000e-05, -2.340000e-05,
3.626190e+00, 2.267730e+01, 9.217676e-01, 7.474698e+00, 6.299145e+00,3.883957e+00, 1.072778e+00, -2.166340e-01,-1.800000e-06, -5.220000e-05, -1.890000e-05,
3.729807e+00, 2.277315e+01, 1.146823e+00, 1.072124e+01, 1.999158e+00,8.731176e+00, 1.338708e+00, -3.709158e-01,-6.750000e-06, -7.935000e-05, 9.150000e-06,
3.833333e+00, 2.267730e+01, 5.746084e-01, 8.513781e+00, 1.165976e+00,6.826502e+00, -8.161746e-01, -1.931853e+00,-1.005000e-05, -8.265000e-05, 3.435000e-05,
3.936825e+00, 2.296484e+01, -7.302315e-01, 9.074024e-01, -8.434772e+00,1.945443e+00, -5.750261e-01, -1.038671e+00,-2.310000e-05, -5.955000e-05, 7.170000e-05,
4.040215e+00, 2.282107e+01, -1.410185e+00, 9.552865e-01, -1.078348e+01,9.347504e-01, 2.470107e-01, 1.374946e-01,-2.505000e-05, -5.085000e-05, 7.665000e-05,
4.143711e+00, 2.262938e+01, -9.337386e-01, 5.865794e-01, -1.079306e+01,1.068515e-01, 5.672986e-01, 1.394398e+00,-1.740000e-05, -5.265000e-05, 7.785000e-05,
4.247154e+00, 2.267730e+01, -1.235408e+00, 1.015142e+00, -9.054871e+00,-8.095397e+00, -2.804518e+00, 9.336846e-01,-2.100000e-05, -5.880000e-05, 7.440000e-05,
4.350553e+00, 2.286899e+01, -2.118868e+00, 6.605602e+00, -7.558495e+00,-4.855479e+00, 1.377611e-01, 4.615130e-01,-2.145000e-05, -7.545000e-05, 5.535000e-05,
4.454031e+00, 2.282107e+01, -2.456451e+00, 8.396465e+00, -4.304775e+00,-3.459749e+00, -2.520735e-01, -2.139694e-01,-2.250000e-05, -8.130000e-05, 3.180000e-05,
4.557469e+00, 2.282107e+01, -2.403778e+00, 8.815451e+00, 3.251326e+00,-3.694502e+00, 2.731241e-01, 2.232956e-01,-2.115000e-05, -7.725000e-05, 3.150000e-06,
4.660912e+00, 2.286899e+01, -1.821987e+00, 8.003816e+00, 6.986280e+00,-2.044567e+00, 1.324585e+00, 2.470107e-01,-2.040000e-05, -6.270000e-05, -1.500000e-05,
4.764364e+00, 2.301276e+01, -3.940856e+00, 6.495469e+00, 7.108385e+00,-4.203179e+00, 1.921195e-01, -3.424043e-01,-3.270000e-05, -5.265000e-05, -1.980000e-05,
4.867817e+00, 2.262938e+01, -3.809175e+00, 2.262521e+00, 1.006522e+01,-2.025381e+00, -2.558040e-02, -3.522634e-01,-3.000000e-05, -2.535000e-05, -2.625000e-05,
4.971303e+00, 2.282107e+01, -4.225766e+00, -1.249773e+00, 1.111149e+01,-2.193786e+00, 1.672319e+00, -4.929556e-02,-3.060000e-05, -7.650000e-06, -1.845000e-05,
5.074773e+00, 2.282107e+01, -3.687071e+00, -7.515399e+00, 4.826711e+00,-8.731443e+00, -1.429571e+00, -3.389403e-01,-3.525000e-05, 1.395000e-05, 1.095000e-05,
5.178189e+00, 2.282107e+01, -3.569755e+00, -9.179369e+00, 3.007117e+00,2.301170e+00, 2.101323e+00, 3.362757e-01,-3.315000e-05, 9.750000e-06, 5.685000e-05,
5.281662e+00, 2.282107e+01, -3.653552e+00, -6.849811e+00, -6.670246e+00,-3.450156e+00, 9.176968e-01, -1.093296e+00,-2.910000e-05, -4.800000e-06, 7.560000e-05,
5.385151e+00, 2.296484e+01, 1.484405e-01, -1.326388e+00, -1.364934e+01,-2.736836e+00, 2.315559e-01, -3.927657e-01,-1.470000e-05, -3.510000e-05, 8.295000e-05,
5.488951e+00, 2.296484e+01, -4.860229e-01, 6.129156e-01, -1.038605e+01,-3.015023e+00, 2.797856e-01, 6.381777e-01,-1.065000e-05, -5.055000e-05, 7.770000e-05,
5.592396e+00, 2.267730e+01, -1.036689e+00, 6.852205e+00, -7.405266e+00,-2.261734e+00, 7.034610e-02, -1.802885e+00,-5.850000e-06, -6.615000e-05, 6.585000e-05,
5.695769e+00, 2.301276e+01, 1.173159e+00, 1.092474e+01, -7.206547e-01,-8.731443e+00, 6.265332e+00, -7.053262e-01,-3.600000e-06, -7.770000e-05, 3.960000e-05,
5.799264e+00, 2.301276e+01, 5.123592e-01, 9.461885e+00, 1.431733e+00,-1.489525e+00, -2.519403e+00, -1.239583e+00,-1.290000e-05, -7.050000e-05, -5.700000e-06,
5.902702e+00, 2.267730e+01, -8.595184e-01, 1.097502e+01, 1.771709e-01,-2.480766e+00, 3.408855e+00, 1.029078e+00,-1.215000e-05, -6.480000e-05, -1.140000e-05,
6.006089e+00, 2.301276e+01, -1.596933e+00, 6.715736e+00, 6.909666e+00,-2.913234e+00, 1.099957e+00, -1.197216e+00,-1.680000e-05, -5.220000e-05, -2.190000e-05,
6.109468e+00, 2.286899e+01, -1.865083e+00, 3.976769e+00, 8.212112e+00,-2.894049e+00, -4.609801e-01, -2.196184e+00,-2.100000e-05, -2.880000e-05, -2.550000e-05,
6.212969e+00, 2.286899e+01, -2.078167e+00, 9.720459e-01, 8.561665e+00,-1.221731e+00, -6.837427e-01, -7.311731e-01,-1.740000e-05, -2.160000e-05, -2.595000e-05,
6.317473e+00, 2.301276e+01, -1.915361e-01, 3.184288e-01, 1.117853e+01,3.685709e+00, -5.145391e-01, 2.290245e+00,-1.080000e-05, -2.040000e-05, -2.325000e-05,
6.421324e+00, 2.286899e+01, 7.709329e-01, 3.114856e+00, 7.728483e+00,6.813446e-01, -5.683645e-01, 3.381409e-01,-1.500000e-06, -3.255000e-05, -2.280000e-05,
6.524786e+00, 2.296484e+01, -9.481039e-01, 2.746149e+00, 7.726089e+00,3.256438e+00, -1.097825e-01, 1.977152e-01,-7.500000e-06, -3.840000e-05, -2.340000e-05,
6.628197e+00, 2.282107e+01, 3.160346e-01, 7.357382e+00, 9.600749e+00,8.262469e+00, -4.581822e+00, -1.121541e+00,-2.550000e-06, -4.950000e-05, -1.920000e-05,
6.731658e+00, 2.286899e+01, 8.643068e-01, 9.634267e+00, 1.774103e+00,2.532459e+00, -7.778040e-01, -4.777672e-01,2.700000e-06, -7.590000e-05, 1.440000e-05,
6.835135e+00, 2.286899e+01, -6.344634e-01, 1.020648e+01, -4.967968e+00,3.420313e+00, -1.095427e+00, -1.188689e+00,-3.000000e-07, -7.770000e-05, 4.080000e-05,
6.938524e+00, 2.277315e+01, -1.350330e+00, 9.761160e+00, -5.030218e+00,8.731176e+00, -2.747228e-01, 3.469875e+00,1.500000e-07, -6.915000e-05, 5.970000e-05,
7.042006e+00, 2.296484e+01, -4.094085e-01, 1.012747e+00, 2.920926e-01,2.502349e+00, 4.635648e+00, 6.864074e-01,8.100000e-06, -4.860000e-05, 7.020000e-05,
7.145396e+00, 2.296484e+01, 1.412579e-01, -3.845088e+00, -1.009635e+01,2.421345e+00, 7.807351e-02, 2.424809e-02,5.400000e-06, -2.550000e-05, 7.575000e-05,
7.248952e+00, 2.282107e+01, -2.250550e-01, -5.875371e+00, -7.893683e+00,8.731176e+00, -2.014723e+00, 1.724012e+00,1.950000e-06, -1.500000e-06, 7.065000e-05,
7.352223e+00, 2.301276e+01, 1.716643e+00, -1.750880e+01, -7.922413e+00,8.404227e-01, 7.540888e-01, -3.019020e-01,9.000000e-07, 1.410000e-05, 4.560000e-05,
7.455760e+00, 2.315653e+01, -2.394202e-02, -1.098939e+01, -2.638410e+00,4.452588e-01, 1.177764e-01, 6.413752e-01,3.000000e-06, 1.650000e-05, 4.365000e-05,
7.559278e+00, 2.277315e+01, -1.084573e+00, -9.299079e+00, -2.394202e+00,4.579957e+00, 1.945176e-01, 3.465611e+00,-6.000000e-06, 2.040000e-05, 3.705000e-05,
7.662786e+00, 2.296484e+01, -2.468422e+00, -9.337386e+00, 3.545813e+00,4.401694e+00, -1.071979e+00, -9.531363e-01,-1.080000e-05, 1.890000e-05, 9.450000e-06,
7.766227e+00, 2.310861e+01, -2.068590e+00, -5.396531e+00, 7.584831e+00,4.878129e+00, -2.347268e+00, -2.147688e-01,-1.065000e-05, 1.005000e-05, -5.400000e-06,
7.869697e+00, 2.301276e+01, -6.129156e-01, -2.643199e+00, 9.109937e+00,6.549648e+00, 1.450888e+00, 2.527930e+00,-9.600000e-06, -1.695000e-05, -2.520000e-05,
7.973145e+00, 2.334822e+01, -4.096479e+00, 5.923255e+00, 1.185848e+01,3.996671e+00, -1.087966e+00, -1.526830e-01,-1.155000e-05, -4.725000e-05, -2.220000e-05,
8.076584e+00, 2.296484e+01, -8.643068e-01, 7.987057e+00, 6.500258e+00,6.216303e+00, 3.765115e-01, -7.098561e-01,-6.450000e-06, -5.760000e-05, -1.485000e-05,
8.179970e+00, 2.296484e+01, -7.781155e-01, 7.905654e+00, 7.678205e+00,2.414150e-01, -2.543917e+00, 8.873201e-02,-9.450000e-06, -6.810000e-05, -9.300000e-06,
8.283397e+00, 2.286899e+01, -6.507440e+00, 8.635885e+00, 7.501034e+00,-4.491492e+00, -1.322720e+00, 1.570796e+00,-3.750000e-06, -6.345000e-05, -1.080000e-05,
8.386862e+00, 2.296484e+01, 3.136404e-01, 5.425261e+00, 8.734048e+00,-5.832597e+00, 6.168607e-01, -4.236754e-02,-1.200000e-06, -4.665000e-05, -2.010000e-05,
8.490403e+00, 2.320445e+01, -4.357447e-01, 2.609680e+00, 1.373314e+01,1.726677e-01, -2.142358e-01, -4.703063e-01,-6.600000e-06, -3.540000e-05, -2.385000e-05,
8.593920e+00, 2.320445e+01, -1.376666e+00, 3.995923e+00, 8.609549e+00,-7.564604e+00, 2.800521e-01, -3.877562e+00,-1.530000e-05, -2.430000e-05, -2.670000e-05,
8.697395e+00, 2.301276e+01, 5.339070e-01, -8.983045e+00, 3.284845e+00,1.106885e+00, 1.532692e+00, -4.068882e-01,4.950000e-06, 1.530000e-05, 1.380000e-05,
8.800900e+00, 2.282107e+01, -1.723825e-01, -8.796297e+00, -5.865794e-01,-2.490625e+00, 1.526830e-01, 7.199816e-01,1.500000e-07, 1.650000e-05, 2.655000e-05,
8.904406e+00, 2.286899e+01, 1.192312e+00, -9.148245e+00, -4.376601e+00,-3.360625e+00, 6.928025e-02, -1.159911e+00,-9.000000e-07, 1.260000e-05, 5.280000e-05,
9.007885e+00, 2.301276e+01, -9.911995e-01, -7.235277e+00, -7.120356e+00,-4.588751e+00, -6.459051e-01, -1.710689e-01,1.950000e-06, -7.200000e-06, 7.245000e-05,
9.111380e+00, 2.315653e+01, 2.394202e-03, -4.469974e+00, -1.063504e+01,-1.589982e+00, 5.763584e-01, 2.344870e-02,-4.950000e-06, -2.175000e-05, 7.965000e-05,
9.214903e+00, 2.320445e+01, 2.753332e+00, 1.817199e+00, -1.146583e+01,-4.518671e+00, 4.140827e-01, 2.529262e+00,1.950000e-06, -3.555000e-05, 7.665000e-05,
9.318425e+00, 2.301276e+01, 1.134852e+00, 3.521871e+00, -8.535329e+00,-4.978052e+00, -5.417182e-01, -3.157580e-01,2.400000e-06, -5.805000e-05, 6.795000e-05,
9.421907e+00, 2.315653e+01, -5.746084e-01, 6.478710e+00, -6.241684e+00,-3.192487e+00, 5.310597e-01, 6.117979e-01,1.950000e-06, -6.945000e-05, 5.385000e-05,
9.525357e+00, 2.296484e+01, 2.217031e+00, 8.305486e+00, -6.856994e+00,7.807351e-02, 2.526864e+00, -2.220165e+00,4.800000e-06, -7.245000e-05, 4.035000e-05,
9.628808e+00, 2.320445e+01, 2.025495e+00, 9.569624e+00, -2.214637e+00,-2.510876e+00, 2.847685e+00, 2.531394e-02,1.500000e-06, -7.815000e-05, 2.205000e-05,
9.732247e+00, 2.330030e+01, 2.602497e+00, 1.193510e+01, 1.235408e+00,-1.228925e+00, -1.778904e+00, -1.344037e+00,3.300000e-06, -7.485000e-05, 1.125000e-05,
9.835741e+00, 2.330030e+01, 4.788403e-03, 9.327810e+00, 3.900155e+00,-1.321121e+00, 2.611599e+00, 6.261868e-02,-2.100000e-06, -7.185000e-05, -4.500000e-07,
9.939246e+00, 2.320445e+01, 1.568202e+00, 7.400477e+00, 6.715736e+00,-7.661063e+00, -2.054426e-01, 8.502818e-01,-4.650000e-06, -6.510000e-05, -9.300000e-06,
1.004276e+01, 2.330030e+01, -4.788403e-02, 2.770091e+00, 8.128315e+00,-6.997305e-01, 3.774974e+00, -5.249311e-01,-8.250000e-06, -3.840000e-05, -2.385000e-05,
1.014622e+01, 2.315653e+01, -3.155558e+00, 4.115633e+00, 1.182736e+01,-5.752925e-01, -3.269228e+00, -2.988377e+00,-1.860000e-05, -2.985000e-05, -2.775000e-05,
1.024971e+01, 2.334822e+01, -1.927332e+00, -4.548983e-01, 9.023746e+00,-2.045633e+00, 8.073813e-02, -2.115979e+00,-1.275000e-05, -2.250000e-05, -2.610000e-05,
1.035325e+01, 2.334822e+01, -3.940856e+00, -1.539472e+00, 9.866505e+00,-4.713988e+00, -6.261868e-02, -1.896946e+00,-1.515000e-05, -1.185000e-05, -2.265000e-05,
1.045679e+01, 2.334822e+01, -5.597643e+00, -4.331111e+00, 6.198588e+00,-4.469109e+00, -2.185525e+00, 3.216202e-01,-2.385000e-05, 2.250000e-06, -1.335000e-05,
1.056027e+01, 2.339614e+01, -3.224990e+00, -7.599196e+00, 3.351882e+00,-2.781069e+00, 1.823403e+00, -1.054925e+00,-1.800000e-05, 1.800000e-05, 8.850000e-06,
1.066380e+01, 2.339614e+01, -3.720589e+00, -9.066842e+00, -9.169792e-01,-6.011127e+00, 1.141525e+00, -7.679449e-01,-1.800000e-05, 1.950000e-05, 3.645000e-05,
1.076730e+01, 2.334822e+01, -2.995146e+00, -9.387665e+00, -6.023811e+00,-1.406655e+00, 7.572864e-01, 1.849516e+00,-1.455000e-05, 1.440000e-05, 5.415000e-05,
1.087331e+01, 2.315653e+01, -1.101333e-01, -6.373365e+00, -8.544906e+00,1.249709e-01, 5.337244e-01, 2.749893e-01,-9.000000e-06, 6.600000e-06, 6.435000e-05,
1.097787e+01, 2.349199e+01, -3.576937e+00, -4.589685e+00, -8.588001e+00,-3.453087e+00, -2.652368e+00, -9.038408e-01,-1.770000e-05, -1.500000e-06, 7.335000e-05,
1.108163e+01, 2.339614e+01, -5.080496e+00, -1.434127e+00, -7.862558e+00,-3.031277e+00, -1.130867e+00, 1.777571e+00,-2.520000e-05, -1.755000e-05, 8.040000e-05,
1.118501e+01, 2.349199e+01, -4.055778e+00, 7.637503e-01, -8.887277e+00,-7.351700e-01, 1.107951e+00, 1.774640e-01,-2.565000e-05, -2.865000e-05, 8.340000e-05,
1.128844e+01, 2.349199e+01, -3.612850e+00, 1.501164e+00, -1.021606e+01,2.659296e-01, 8.079143e-01, 2.851149e-01,-2.040000e-05, -3.510000e-05, 8.220000e-05,
1.139186e+01, 2.349199e+01, -3.294421e+00, 2.762909e+00, -9.318233e+00,-1.968625e+00, -1.910536e-01, 2.053893e+00,-2.055000e-05, -4.200000e-05, 8.175000e-05,
1.149534e+01, 2.315653e+01, -2.640804e+00, 2.604891e+00, -7.958326e+00,4.858677e+00, 1.481531e-01, 7.090567e-01,-1.965000e-05, -2.940000e-05, 8.115000e-05,
1.159879e+01, 2.368368e+01, -3.256114e-01, -5.985504e-01, -8.949526e+00,5.021486e+00, -2.100790e+00, 1.981149e+00,-1.770000e-05, -4.500000e-06, 7.485000e-05,
1.170222e+01, 2.382745e+01, -2.559402e+00, -4.987122e+00, -8.109161e+00,2.422943e+00, -3.464012e-03, 5.747596e-01,-1.830000e-05, 8.400000e-06, 6.390000e-05,
1.180565e+01, 2.339614e+01, -2.240973e+00, -6.284779e+00, -6.272808e+00,4.193054e+00, 2.563369e-01, -5.659663e-01,-1.980000e-05, 1.545000e-05, 5.460000e-05,
1.190909e+01, 2.363576e+01, -3.900155e+00, -7.122750e+00, -5.681441e+00,5.006830e-01, -1.867902e-01, -1.628619e+00,-2.265000e-05, 1.860000e-05, 4.500000e-05,
1.201249e+01, 2.368368e+01, -1.649605e+00, -7.084443e+00, -4.790798e+00,1.795158e+00, 2.731241e-01, 3.024349e-01,-1.710000e-05, 2.025000e-05, 3.945000e-05,
1.211591e+01, 2.349199e+01, -5.015852e+00, -7.884106e+00, -6.342240e+00,4.900245e-01, 3.000634e+00, 1.795957e-01,-1.695000e-05, 2.085000e-05, 3.930000e-05,
1.221936e+01, 2.368368e+01, -1.625663e+00, -9.526528e+00, -4.156334e+00,2.136763e+00, 2.065084e-01, -1.636080e-01,-1.815000e-05, 2.190000e-05, 2.700000e-05,
1.232290e+01, 2.368368e+01, 1.908179e+00, -5.322310e+00, 3.167529e+00,7.549948e+00, 5.960499e+00, -7.476937e-01,-1.995000e-05, 1.605000e-05, 1.200000e-06,
1.242635e+01, 2.368368e+01, -1.953669e+00, -8.269573e+00, 5.415684e+00,5.996738e+00, 2.284383e+00, -1.435700e+00,-2.625000e-05, 3.750000e-06, -1.410000e-05,
1.252977e+01, 2.363576e+01, -3.746926e+00, -1.333810e+01, 6.610391e+00,1.461280e+00, 1.418646e+00, -9.246248e-02,-2.910000e-05, -1.365000e-05, -2.325000e-05,
1.263322e+01, 2.368368e+01, -5.339070e-01, -2.686294e+00, 1.216733e+01,9.512711e-01, -1.517237e+00, 1.797822e+00,-1.875000e-05, -3.510000e-05, -2.490000e-05,
1.273664e+01, 2.349199e+01, 3.399766e-01, 3.854665e-01, 9.397242e+00,6.789464e-01, 3.551945e-01, 2.048564e+00,-1.470000e-05, -4.080000e-05, -2.415000e-05,
1.284005e+01, 2.339614e+01, 7.110779e-01, -7.589619e-01, 1.046984e+01,1.309930e+00, -7.231792e-01, 4.516539e-01,-9.600000e-06, -4.860000e-05, -2.130000e-05,
1.294349e+01, 2.368368e+01, -6.224924e-02, 2.035071e+00, 8.568848e+00,2.410153e+00, -2.182328e-01, 2.033109e-01,-7.050000e-06, -6.195000e-05, -1.230000e-05,
1.304686e+01, 2.363576e+01, -9.557653e+00, 8.279149e+00, 3.639187e+00,6.102524e+00, -2.080006e+00, -3.155715e+00,-1.830000e-05, -8.220000e-05, 1.200000e-05,
1.315022e+01, 2.368368e+01, -7.565677e-01, 8.975862e+00, 3.505111e+00,2.488760e+00, 1.358959e+00, 1.172968e+00,-1.275000e-05, -8.250000e-05, 2.910000e-05,
1.325366e+01, 2.382745e+01, -1.323994e+00, 8.245631e+00, -1.848324e+00,4.207443e+00, 1.823403e+00, 8.636049e-01,-9.900000e-06, -7.605000e-05, 5.400000e-05,
1.335717e+01, 2.373160e+01, 1.223437e+00, 8.774749e+00, -6.189011e+00,1.107418e+00, 4.076876e-02, 8.673354e-01,-3.750000e-06, -6.390000e-05, 6.585000e-05,
1.346061e+01, 2.368368e+01, 1.616086e+00, 5.750872e+00, -7.036559e+00,6.283452e+00, 1.160444e+00, -1.096760e+00,6.000000e-07, -4.905000e-05, 7.380000e-05,
1.356405e+01, 2.387537e+01, 8.188170e-01, 3.612850e+00, -8.535329e+00,4.054760e+00, -1.230257e+00, 1.123406e+00,-1.500000e-06, -3.405000e-05, 7.830000e-05,
1.366745e+01, 2.387537e+01, 5.506664e-02, 2.236184e+00, -9.342175e+00,1.282750e+00, -3.930322e-01, 3.637213e-01,-3.150000e-06, -2.040000e-05, 7.830000e-05,
1.377091e+01, 2.382745e+01, 3.591302e-01, 3.303998e-01, -9.703699e+00,8.329617e-01, -5.848852e-01, -5.606371e-01,-6.000000e-06, -1.470000e-05, 7.860000e-05,
1.387437e+01, 2.416291e+01, -1.005565e+00, -1.810016e+00, -9.143456e+00,1.306999e+00, 1.170570e+00, -6.701532e-01,-6.150000e-06, -9.300000e-06, 7.500000e-05,
1.397780e+01, 2.401914e+01, 2.331952e+00, -1.412579e-01, -1.052491e+01,2.336876e-01, 1.820472e+00, -1.453286e+00,2.700000e-06, -7.200000e-06, 7.140000e-05,
1.408127e+01, 2.363576e+01, -1.051055e+00, 3.653552e+00, -8.185775e+00,-8.657366e+00, -5.156049e+00, 2.063219e+00,1.800000e-06, -1.800000e-05, 7.695000e-05,
1.418481e+01, 2.363576e+01, -2.161964e+00, 4.886566e+00, -5.940014e+00,-4.664959e+00, -1.099957e+00, -1.644074e-01,-1.245000e-05, -4.290000e-05, 8.205000e-05,
1.428822e+01, 2.406706e+01, -3.256114e-01, 9.038111e+00, -3.976769e+00,-5.365755e+00, -1.399195e+00, -8.492160e-01,-2.025000e-05, -7.050000e-05, 6.225000e-05,
1.439179e+01, 2.387537e+01, -4.855441e+00, 8.961497e+00, 6.320692e-01,-5.042536e+00, -1.677914e+00, -8.436202e-01,-2.655000e-05, -7.950000e-05, 4.215000e-05,
1.449525e+01, 2.387537e+01, -3.730166e+00, 7.991845e+00, 7.079654e+00,-2.451988e+00, -1.683244e+00, 7.735406e-01,-2.715000e-05, -8.190000e-05, 2.595000e-05,
1.459874e+01, 2.392329e+01, 3.153164e+00, 5.410896e-01, 4.764461e-01,-6.312496e+00, -1.684576e+00, 1.121807e+00,-1.875000e-05, -7.800000e-05, 6.600000e-06,
1.470215e+01, 2.387537e+01, 8.858546e-01, 5.372589e+00, 8.101978e+00,-1.738135e+00, -4.633783e-01, 1.108217e+00,-1.050000e-05, -7.095000e-05, -6.750000e-06,
1.480563e+01, 2.368368e+01, 1.604115e-01, 2.798822e+00, 9.536105e+00,-1.467942e+00, 9.070383e-01, -1.055191e-01,-1.125000e-05, -6.300000e-05, -1.365000e-05,
1.490913e+01, 2.406706e+01, 5.219360e-01, 2.825158e-01, 1.006283e+01,-3.307599e+00, 1.131933e+00, 5.702297e-02,-7.800000e-06, -4.800000e-05, -2.310000e-05,
1.501256e+01, 2.392329e+01, 3.232172e-01, -7.687782e+00, 7.685387e+00,-4.796325e-03, 3.996937e-01, -1.193485e+00,-8.850000e-06, -2.385000e-05, -2.670000e-05,
1.511592e+01, 2.373160e+01, 2.499547e+00, -4.582502e+00, 5.461174e+00,-2.329682e+00, 3.725146e-01, 1.177498e+00,-1.245000e-05, -1.665000e-05, -2.400000e-05,
1.521936e+01, 2.387537e+01, 7.661445e-01, -7.759608e+00, 7.223306e+00,-4.973522e+00, 9.403461e-01, -3.546616e-01,-1.245000e-05, -4.500000e-06, -1.860000e-05,
1.532281e+01, 2.406706e+01, 2.801216e-01, -1.149696e+01, 2.542642e+00,-6.358861e+00, 6.019388e-01, -3.266830e-01,-1.005000e-05, 1.215000e-05, -2.250000e-06,
1.542643e+01, 2.382745e+01, 2.583344e+00, -9.775525e+00, 1.896208e+00,-1.286214e+00, 2.794925e+00, -1.894548e-01,-7.200000e-06, 1.590000e-05, 7.200000e-06,
1.552993e+01, 2.406706e+01, 1.319205e+00, -1.182975e+01, 6.488286e-01,-4.541054e+00, 4.322022e-01, 3.709158e-01,-7.650000e-06, 1.890000e-05, 1.440000e-05,
1.563338e+01, 2.406706e+01, 2.473210e+00, -9.299079e+00, -5.300762e+00,-2.145822e+00, -5.811547e-01, -2.805850e-01,-6.150000e-06, 2.175000e-05, 2.985000e-05,
1.573793e+01, 2.392329e+01, -1.213860e+00, -1.012268e+01, -2.820370e+00,-1.428505e+00, -1.334977e-01, 2.194585e+00,-4.350000e-06, 1.770000e-05, 4.155000e-05,
1.584132e+01, 2.425875e+01, -3.926491e-01, -5.992687e+00, -6.976704e+00,-6.561372e+00, -1.045066e+00, -4.020919e-01,-8.400000e-06, 5.250000e-06, 6.750000e-05,
1.594478e+01, 2.406706e+01, 7.852981e-01, -2.154781e-02, -1.063026e+01,-2.335011e+00, -1.636080e+00, 1.080239e+00,-1.245000e-05, -1.215000e-05, 8.010000e-05,
1.604818e+01, 2.368368e+01, 1.036689e+00, 7.096414e+00, -4.278438e+00,-2.102655e+00, 7.714089e-01, -2.461048e+00,-5.850000e-06, -4.080000e-05, 7.995000e-05,
1.615163e+01, 2.392329e+01, -1.048660e+00, 9.303868e+00, -9.550470e+00,-5.932521e+00, 2.424809e+00, -1.854579e-01,-1.425000e-05, -4.875000e-05, 7.965000e-05,
1.625998e+01, 2.406706e+01, -6.919243e-01, 8.180987e+00, -5.257667e+00,-1.764248e+00, 5.169372e-01, -4.372649e-01,-1.740000e-05, -6.450000e-05, 7.020000e-05,
1.636338e+01, 2.421083e+01, -1.051055e+00, 1.011790e+01, -8.858546e-02,-1.366953e+00, -1.872698e+00, -5.014824e-01,-1.470000e-05, -7.485000e-05, 5.745000e-05,
1.646679e+01, 2.406706e+01, -1.963245e+00, 8.109161e+00, 2.264915e+00,-6.314628e+00, -4.401960e-01, -9.235590e-01,-2.490000e-05, -8.325000e-05, 2.880000e-05,
1.657016e+01, 2.425875e+01, -1.666364e+00, 2.537854e+00, 1.098460e+01,-8.731443e+00, -2.030178e+00, -3.534358e+00,-3.720000e-05, -6.405000e-05, -1.065000e-05,
1.667359e+01, 2.382745e+01, -7.805097e-01, -8.068460e-01, 9.998186e+00,-3.357427e-01, -2.398162e-01, -9.363492e-01,-3.870000e-05, -4.680000e-05, -2.070000e-05,
1.677696e+01, 2.416291e+01, -2.578555e+00, -2.990358e+00, 1.071645e+01,1.477268e+00, 2.700597e+00, 2.294242e-01,-3.885000e-05, -3.900000e-05, -2.400000e-05,
1.688038e+01, 2.401914e+01, -3.055001e+00, 1.412579e+00, 9.454702e+00,3.322521e+00, -9.531363e-01, 2.139694e-01,-3.660000e-05, -5.475000e-05, -1.650000e-05,
1.698382e+01, 2.406706e+01, -2.267309e+00, 1.115937e+01, 6.105214e+00,4.674019e+00, 1.656331e+00, 1.736270e+00,-3.495000e-05, -7.755000e-05, 5.400000e-06,
1.708730e+01, 2.416291e+01, -7.948750e-01, 7.927202e+00, 5.264849e+00,4.635914e+00, -4.356662e-01, 9.768515e-01,-2.775000e-05, -8.295000e-05, 2.490000e-05,
1.719078e+01, 2.401914e+01, -5.889736e-01, 8.884882e+00, -5.209783e+00,5.040937e+00, -3.378744e-01, 7.716754e-01,-2.460000e-05, -7.170000e-05, 6.030000e-05,
1.729419e+01, 2.425875e+01, -1.987187e-01, 8.746019e+00, -7.517793e+00,2.331547e+00, -5.782236e-01, -8.955804e-01,-1.920000e-05, -5.175000e-05, 7.800000e-05,
1.739777e+01, 2.387537e+01, 2.585738e-01, 6.641515e+00, -8.118738e+00,6.003400e-01, -1.560671e+00, 5.148055e-01,-1.965000e-05, -4.335000e-05, 7.920000e-05,
1.750126e+01, 2.440252e+01, 1.019930e+00, 3.205836e+00, -1.029507e+01,5.126738e-01, -4.671087e-01, 2.592680e-01,-1.590000e-05, -2.790000e-05, 8.070000e-05,
1.760475e+01, 2.406706e+01, 1.055843e+00, -1.307234e+00, -1.088404e+01,8.731176e+00, -2.690738e+00, 8.396233e-01,-1.800000e-05, -6.900000e-06, 7.650000e-05,
1.770819e+01, 2.416291e+01, -1.613692e+00, -7.666234e+00, -6.823475e+00,2.545250e+00, 2.195651e-01, -1.054925e+00,-2.145000e-05, 1.740000e-05, 4.890000e-05,
1.781164e+01, 2.425875e+01, 4.429273e-01, -9.514557e+00, -2.806004e+00,3.668656e+00, 1.658995e+00, 3.304135e-01,-1.905000e-05, 2.160000e-05, 2.865000e-05,
1.791509e+01, 2.425875e+01, -8.379706e-01, -8.161833e+00, -1.893814e+00,3.542086e+00, -2.233222e+00, 6.773476e-01,-2.250000e-05, 1.950000e-05, 1.920000e-05,
1.801854e+01, 2.416291e+01, 5.937620e-01, -1.273236e+01, -3.926491e-01,6.089734e+00, 2.399761e+00, -1.531893e+00,-1.365000e-05, 1.740000e-05, 6.450000e-06,
1.812197e+01, 2.435460e+01, 3.809175e+00, -6.768408e+00, 8.848969e+00,8.731176e+00, 1.763715e+00, -2.844221e+00,-1.410000e-05, -3.000000e-06, -1.515000e-05,
1.822536e+01, 2.425875e+01, 1.247379e+00, -5.284003e+00, 8.808268e+00,-2.270260e-01, -5.851516e-01, 9.139663e-01,-1.530000e-05, -2.685000e-05, -2.520000e-05,
1.832889e+01, 2.435460e+01, 6.392518e-01, -2.049437e+00, 1.090319e+01,1.817274e+00, 6.853415e-01, 5.001501e-01,-2.370000e-05, -3.960000e-05, -2.610000e-05,
1.843244e+01, 2.416291e+01, -6.751649e-01, -1.082179e+00, 9.270349e+00,6.056692e-01, 2.119976e+00, 1.458083e+00,-2.715000e-05, -4.860000e-05, -2.205000e-05,
1.853586e+01, 2.435460e+01, -1.541866e+00, -5.410896e-01, 1.409227e+01,5.716420e+00, -1.839391e+00, -8.465513e-01,-2.805000e-05, -5.790000e-05, -1.725000e-05,
1.863933e+01, 2.421083e+01, 1.970428e+00, 6.141127e+00, 7.402872e+00,3.506913e+00, -2.382708e+00, -9.507382e-01,-1.755000e-05, -7.455000e-05, -1.500000e-07,
1.874281e+01, 2.406706e+01, -3.351882e-02, 7.972692e+00, 4.115633e+00,5.191489e+00, -1.000034e+00, -1.916665e+00,-2.145000e-05, -8.265000e-05, 1.905000e-05,
1.884620e+01, 2.435460e+01, -1.549048e+00, 9.378088e+00, 1.915361e-01,7.689308e+00, 3.335311e+00, -1.266763e+00,-3.255000e-05, -7.980000e-05, 4.245000e-05,
1.894969e+01, 2.425875e+01, -3.136404e+00, 8.389283e+00, -8.769961e+00,3.726744e+00, -3.274558e+00, -4.076876e-02,-3.300000e-05, -6.435000e-05, 6.615000e-05,
1.905317e+01, 2.425875e+01, -1.000776e+00, 5.779603e+00, -9.392453e+00,2.010459e+00, 5.696968e-01, 1.549746e+00,-3.465000e-05, -4.605000e-05, 7.800000e-05,
1.915658e+01, 2.435460e+01, -4.788403e-03, 4.357447e+00, -8.992621e+00,3.544750e+00, 1.183626e+00, -1.783433e+00,-3.465000e-05, -2.400000e-05, 7.995000e-05,
1.925999e+01, 2.435460e+01, -1.628057e-01, -2.585738e-01, -9.574412e+00,1.014689e+00, 8.985115e-01, 1.311262e+00,-2.895000e-05, -1.575000e-05, 7.920000e-05,
1.936357e+01, 2.425875e+01, -5.530606e-01, -1.843535e-01, -9.871293e+00,6.752159e-01, -8.135100e-01, -3.615896e-01,-3.885000e-05, -1.125000e-05, 7.485000e-05,
1.946701e+01, 2.440252e+01, -2.082955e-01, -3.648763e+00, -9.622296e+00,5.323921e-01, -3.543951e-02, 3.104288e-01,-3.660000e-05, -3.900000e-06, 7.080000e-05,
1.957045e+01, 2.425875e+01, -2.274492e-01, 1.225831e+00, -9.938331e+00,-3.268162e+00, 1.875363e+00, -8.036509e-01,-2.805000e-05, -1.035000e-05, 7.770000e-05,
1.967394e+01, 2.425875e+01, 5.602432e-01, 2.437297e+00, -9.787496e+00,-2.487427e+00, -9.635284e-01, -1.150585e+00,-2.970000e-05, -3.045000e-05, 8.040000e-05,
1.977741e+01, 2.454629e+01, 2.011129e-01, 3.296816e+00, -7.213730e+00,-4.073945e+00, -2.611332e-01, -1.245179e+00,-3.675000e-05, -4.665000e-05, 7.755000e-05,
1.988091e+01, 2.454629e+01, -2.813187e+00, 9.311050e+00, -3.248932e+00,-2.660628e+00, -8.119112e-01, 1.891884e-01,-4.245000e-05, -6.825000e-05, 5.880000e-05,
1.998439e+01, 2.425875e+01, -7.814674e+00, 4.596867e+00, 8.307880e-01,-4.575427e+00, -4.425143e+00, -7.141195e-01,-4.680000e-05, -7.410000e-05, 4.215000e-05,
2.008785e+01, 2.435460e+01, -1.321599e+00, 1.196383e+01, 3.799598e+00,-3.543951e+00, -3.081372e+00, -5.955437e-01,-4.815000e-05, -7.620000e-05, 2.205000e-05,
2.019133e+01, 2.445044e+01, -3.986346e+00, 5.585672e+00, 8.767566e+00,-6.261069e+00, 2.923093e-01, 2.027780e-01,-4.800000e-05, -6.615000e-05, -3.600000e-06,
2.029494e+01, 2.454629e+01, -2.770091e+00, 1.798045e+00, 9.279926e+00,-9.379480e-01, -1.212671e+00, -1.211871e+00,-5.505000e-05, -4.545000e-05, -1.260000e-05,
2.040451e+01, 2.459421e+01, -1.829170e+00, -5.099650e-01, 9.722853e+00,-9.352833e-01, -1.320055e+00, 1.364288e-01,-4.515000e-05, -3.810000e-05, -2.070000e-05,
2.050848e+01, 2.454629e+01, 6.799533e-01, -1.905785e+00, 1.172919e+01,-3.294009e+00, -8.859878e-01, -5.430506e-01,-4.005000e-05, -2.535000e-05, -2.325000e-05,
2.061192e+01, 2.425875e+01, 7.876923e-01, -7.374141e+00, 6.703765e+00,-6.360460e+00, 3.098959e-01, -1.074377e+00,-3.675000e-05, -1.050000e-06, -1.290000e-05,
2.071538e+01, 2.454629e+01, 1.460463e+00, -9.255984e+00, 3.014300e+00,-2.637979e+00, 6.594947e-01, -2.038438e-01,-3.300000e-05, 1.455000e-05, 8.550000e-06,
2.081883e+01, 2.440252e+01, -2.202666e-01, -1.020888e+01, -1.948880e+00,-6.022852e+00, 1.166573e+00, 4.311363e-01,-3.375000e-05, 1.875000e-05, 3.525000e-05,
2.092251e+01, 2.459421e+01, 2.042254e+00, -3.926491e+00, -7.015011e+00,-8.413020e+00, -3.951639e-01, -4.234089e-01,-3.195000e-05, 1.170000e-05, 5.640000e-05,
2.102596e+01, 2.473798e+01, 6.368576e-01, -5.444415e+00, -8.240842e+00,-3.851449e+00, -1.133531e+00, 8.247014e-01,-3.720000e-05, -7.500000e-07, 6.990000e-05,
2.112943e+01, 2.445044e+01, -6.584055e-01, -2.178724e-01, -7.517793e+00,-2.099724e+00, -1.483663e+00, -4.148821e-01,-4.365000e-05, -1.860000e-05, 7.635000e-05,
2.123286e+01, 2.425875e+01, -3.615245e-01, 2.992752e-01, -8.729259e+00,-4.904775e+00, -3.183427e+00, 1.159378e+00,-5.055000e-05, -3.405000e-05, 7.410000e-05,
2.133640e+01, 2.445044e+01, -3.495534e+00, 5.688623e+00, -6.691794e+00,-1.465011e+00, 3.013691e-01, 5.246646e-01,-5.325000e-05, -4.830000e-05, 6.855000e-05,
2.143981e+01, 2.473798e+01, -1.968034e+00, 4.927267e+00, -9.083601e+00,2.023516e+00, 9.184962e-01, 2.121041e-01,-5.115000e-05, -5.370000e-05, 6.780000e-05,
2.154340e+01, 2.478590e+01, -2.461239e+00, 1.501164e+00, -1.011071e+01,8.610735e+00, 2.371250e+00, -6.136631e-01,-5.520000e-05, -3.165000e-05, 6.855000e-05,
2.164723e+01, 2.469006e+01, -6.105214e-01, -5.674258e+00, -9.105149e+00,8.304037e+00, 4.429939e+00, -9.566003e-01,-4.305000e-05, -1.650000e-06, 6.585000e-05,
2.175074e+01, 2.459421e+01, 1.027113e+00, -9.411607e+00, -1.819593e+00,4.911170e+00, -3.493323e-01, 8.180398e-01,-4.020000e-05, 1.725000e-05, 3.945000e-05,
2.185418e+01, 2.459421e+01, -3.758897e-01, -1.112825e+01, 3.732560e+00,4.268729e+00, 1.179363e+00, -6.504349e-01,-4.155000e-05, 1.530000e-05, 8.550000e-06,
2.195765e+01, 2.459421e+01, -1.261744e+00, -6.430826e+00, 2.373612e+01,2.116512e+00, 1.672852e+00, 2.772809e+00,-4.185000e-05, -6.150000e-06, -1.575000e-05,
2.206112e+01, 2.469006e+01, -1.355118e+00, -2.516306e+00, 1.329021e+01,3.865038e+00, -4.210107e-02, 1.013090e+00,-4.740000e-05, -2.760000e-05, -1.935000e-05,
2.216472e+01, 2.469006e+01, -2.942474e+00, 4.604050e+00, 8.197746e+00,5.979418e-01, -1.747994e-01, 1.318456e+00,-5.520000e-05, -4.035000e-05, -1.695000e-05,
2.226812e+01, 2.473798e+01, -4.740519e+00, 5.521029e+00, 6.047753e+00,5.207210e+00, 1.892950e+00, 2.277188e+00,-4.695000e-05, -4.740000e-05, -1.680000e-05,
2.237164e+01, 2.469006e+01, -1.206678e+00, 7.022193e+00, 6.801927e+00,4.568233e+00, -4.503216e-02, 1.859908e-01,-4.740000e-05, -6.075000e-05, -6.000000e-06,
2.247503e+01, 2.478590e+01, -1.446098e+00, 1.024718e+01, 2.094926e+00,5.837127e+00, 3.598043e+00, 3.781103e+00,-4.395000e-05, -7.830000e-05, 2.910000e-05,
2.257848e+01, 2.459421e+01, 2.394202e-03, 8.113949e+00, -3.311181e+00,6.203247e-01, -1.540420e+00, 1.910536e-01,-3.645000e-05, -7.245000e-05, 5.685000e-05,
2.268197e+01, 2.492967e+01, 1.022324e+00, 6.102820e+00, -7.242460e+00,4.088067e+00, -5.942113e-01, 2.787997e+00,-3.255000e-05, -6.165000e-05, 6.855000e-05,
2.278545e+01, 2.488175e+01, 4.333505e-01, 2.044648e+00, -9.339781e+00,4.347602e+00, -8.292313e-01, 6.589617e-01,-3.825000e-05, -3.810000e-05, 7.800000e-05,
2.288895e+01, 2.492967e+01, 3.471592e-01, -4.022259e-01, -9.591172e+00,4.107253e+00, 6.954671e-02, -1.406922e-01,-4.155000e-05, -2.055000e-05, 7.695000e-05,
2.299243e+01, 2.492967e+01, -1.453280e+00, -5.082890e+00, -8.504204e+00,2.506346e+00, -2.653966e-01, 2.123706e-01,-4.470000e-05, -6.900000e-06, 6.960000e-05,
2.309589e+01, 2.473798e+01, -1.194707e+00, -6.943185e+00, -6.971915e+00,7.503584e-01, 4.783002e-01, 4.822971e-01,-4.680000e-05, 1.200000e-06, 6.315000e-05,
2.319936e+01, 2.454629e+01, -4.237737e-01, -6.672640e+00, -6.524200e+00,-2.287847e+00, 7.735406e-01, -1.087167e-01,-4.455000e-05, 4.050000e-06, 6.450000e-05,
2.330283e+01, 2.469006e+01, 9.744401e-01, -3.881001e+00, -9.502586e+00,-5.050264e+00, 2.219633e-01, -1.849250e+00,-3.540000e-05, -1.530000e-05, 7.845000e-05,
2.340640e+01, 2.478590e+01, 4.836287e-01, 1.225831e+00, -1.141795e+01,-1.447158e+00, -1.593712e+00, -6.043369e-01,-3.825000e-05, -3.390000e-05, 7.995000e-05,
2.350988e+01, 2.488175e+01, -1.649605e+00, 6.849811e+00, -9.011775e+00,-2.576159e+00, -8.204380e-01, 2.014456e-01,-4.800000e-05, -5.445000e-05, 6.885000e-05,
2.361330e+01, 2.459421e+01, -1.704672e+00, 1.010832e+01, -5.054160e+00,-4.575960e+00, 4.926891e-01, -1.159911e+00,-4.965000e-05, -7.230000e-05, 4.440000e-05,
2.371677e+01, 2.497760e+01, -6.631939e-01, 8.592790e+00, 3.088520e+00,-6.393501e+00, -1.566799e+00, -2.060821e+00,-5.265000e-05, -6.945000e-05, 1.140000e-05,
2.382020e+01, 2.492967e+01, -3.227384e+00, 5.729325e+00, 7.259219e+00,-1.254772e+00, -9.411455e-01, -1.364288e+00,-5.445000e-05, -6.015000e-05, -4.650000e-06,
2.392368e+01, 2.469006e+01, -1.434127e+00, 7.074866e+00, 7.343016e+00,-4.247679e+00, -1.424508e+00, -1.395464e+00,-5.100000e-05, -5.310000e-05, -1.065000e-05,
2.402724e+01, 2.507344e+01, -2.693477e+00, 4.146757e+00, 9.761160e+00,-3.676649e+00, 5.379878e-01, -8.926493e-02,-5.160000e-05, -3.765000e-05, -1.695000e-05,
2.413071e+01, 2.478590e+01, -1.094150e+00, -2.777274e-01, 1.056561e+01,-8.662696e-01, -1.537489e+00, 5.505115e-01,-5.280000e-05, -2.595000e-05, -1.650000e-05,
2.423416e+01, 2.488175e+01, 2.027889e+00, -7.256825e+00, 5.801151e+00,-1.339507e+00, 5.675651e-02, 1.276355e-01,-4.335000e-05, -6.450000e-06, -1.515000e-05,
2.433770e+01, 2.488175e+01, -4.213795e-01, -7.637503e+00, 5.628768e+00,-3.451489e+00, -8.665360e-01, 2.174334e-01,-4.410000e-05, 5.550000e-06, -5.250000e-06,
2.444116e+01, 2.497760e+01, -7.182605e-02, -8.975862e+00, 5.063737e+00,-2.564968e+00, -9.235590e-01, 6.171271e-01,-4.155000e-05, 1.185000e-05, 7.800000e-06,
2.454462e+01, 2.469006e+01, -1.120486e+00, -1.018015e+01, -1.419762e+00,-4.602074e+00, 1.738668e+00, 1.083170e+00,-4.575000e-05, 1.395000e-05, 2.595000e-05,
2.464807e+01, 2.497760e+01, -5.793968e-01, -5.724536e+00, -3.988740e+00,-8.731443e+00, 1.118343e+00, 5.704962e-01,-4.590000e-05, 6.900000e-06, 5.595000e-05,
2.475151e+01, 2.507344e+01, -1.556231e+00, -1.118092e+00, -9.414001e+00,-2.486894e+00, 2.904441e-02, 1.926524e+00,-5.220000e-05, -2.460000e-05, 7.440000e-05,
2.485492e+01, 2.497760e+01, -1.544260e+00, 2.533065e+00, -8.743624e+00,-3.660662e+00, 4.343339e-02, 1.260101e+00,-4.980000e-05, -4.770000e-05, 7.095000e-05,
2.495838e+01, 2.497760e+01, -2.224213e+00, 6.782773e+00, -8.233660e+00,-2.329415e+00, 5.819541e-01, 6.467045e-01,-4.530000e-05, -6.720000e-05, 5.955000e-05,
2.506321e+01, 2.521721e+01, -1.781286e+00, 9.868899e+00, -5.645528e+00,-1.399994e+00, 2.443461e-01, 8.260337e-03,-4.500000e-05, -7.320000e-05, 4.965000e-05,
2.516695e+01, 2.469006e+01, -2.695871e+00, 9.612720e+00, -6.019023e+00,5.674319e+00, 7.620827e-02, -5.526432e-01,-4.335000e-05, -7.095000e-05, 5.415000e-05,
2.527046e+01, 2.488175e+01, 1.771709e-01, 2.035071e-01, -8.377312e+00,7.224065e+00, 1.469274e+00, -8.233691e-02,-4.365000e-05, -5.385000e-05, 7.140000e-05,
2.537400e+01, 2.492967e+01, 1.297657e+00, -1.596933e+00, -9.538499e+00,8.731176e+00, 4.535724e+00, 5.968760e-01,-3.615000e-05, -1.980000e-05, 7.770000e-05,
2.547744e+01, 2.512136e+01, 1.374272e+00, -6.811504e+00, -6.330269e+00,5.517905e+00, 1.090631e+00, 1.023749e+00,-3.015000e-05, 8.100000e-06, 6.360000e-05,
2.558090e+01, 2.545682e+01, 4.141969e-01, -9.715670e+00, -3.600879e+00,4.374248e+00, -2.825302e+00, -9.230261e-01,-3.300000e-05, 1.605000e-05, 5.100000e-05,
2.568438e+01, 2.521721e+01, 2.875436e+00, -9.301473e+00, 3.088520e+00,3.985746e+00, -6.632251e-01, -1.806616e-01,-2.775000e-05, 2.145000e-05, 1.500000e-05,
2.578783e+01, 2.521721e+01, 5.506664e-01, -3.845088e+00, -2.384625e+00,4.969259e+00, 4.792594e+00, 7.125207e-01,-2.250000e-05, -3.150000e-06, -1.770000e-05,
2.589142e+01, 2.497760e+01, 2.966416e+00, -1.903390e+00, 8.966285e+00,4.631917e+00, 2.055758e+00, 2.447724e+00,-3.000000e-05, -2.190000e-05, -2.520000e-05,
2.599491e+01, 2.521721e+01, 1.036689e+00, 3.574543e+00, 8.013393e+00,3.290012e+00, -1.998469e-02, 1.247044e-01,-3.000000e-05, -4.320000e-05, -2.355000e-05,
2.609837e+01, 2.521721e+01, 1.934515e+00, 4.656722e+00, 9.576807e+00,4.364922e+00, -3.368086e-01, 4.969525e-01,-3.705000e-05, -5.940000e-05, -1.470000e-05,
2.620178e+01, 2.512136e+01, 2.252944e+00, 9.217676e+00, 5.353435e+00,5.246113e+00, -1.282217e+00, -5.659663e-01,-3.015000e-05, -7.605000e-05, 2.850000e-06,
2.630524e+01, 2.545682e+01, 3.256114e-01, 1.013466e+01, -4.496311e+00,4.974322e+00, 9.003767e-01, 7.700766e-02,-3.810000e-05, -7.890000e-05, 4.230000e-05,
2.640896e+01, 2.512136e+01, 5.750872e+00, 2.401384e+00, -1.224155e+01,8.731176e+00, 8.731176e+00, 3.666790e+00,-2.910000e-05, -6.480000e-05, 6.870000e-05,
2.651242e+01, 2.507344e+01, 1.606509e+00, 3.608062e+00, -6.871359e+00,2.482365e+00, 3.384074e-01, 7.554212e-01,-2.775000e-05, -5.445000e-05, 7.620000e-05,
2.661587e+01, 2.526513e+01, 2.418144e+00, -1.350330e+00, -1.295263e+01,5.577060e-01, -6.363124e-01, 1.730141e+00,-2.565000e-05, -4.335000e-05, 8.070000e-05,
2.671935e+01, 2.512136e+01, 1.608904e+00, 3.904943e+00, -1.009635e+01,-1.443960e+00, -2.259868e+00, -1.042934e+00,-3.405000e-05, -4.125000e-05, 7.860000e-05,
2.682282e+01, 2.531306e+01, 1.249773e+00, 3.203442e+00, -1.170525e+01,2.044300e+00, -5.515774e-02, 5.010827e+00,-3.675000e-05, -4.770000e-05, 7.710000e-05,
2.692625e+01, 2.531306e+01, -1.915361e+00, 1.130063e+00, -9.272743e+00,-2.052028e+00, -1.728276e+00, 8.582757e-01,-3.930000e-05, -4.815000e-05, 7.590000e-05,
2.703327e+01, 2.507344e+01, -4.022259e-01, 4.627992e+00, -1.025915e+01,-5.923461e+00, -4.034242e-01, 1.014689e+00,-3.615000e-05, -6.090000e-05, 7.005000e-05,
2.713664e+01, 2.521721e+01, 1.690306e+00, 9.308656e+00, -5.118803e+00,-7.213140e+00, 3.874365e-01, -1.516172e-01,-3.255000e-05, -7.725000e-05, 4.710000e-05,
2.724001e+01, 2.521721e+01, 1.491588e+00, 1.469322e+01, -3.557784e+00,-6.536858e+00, -2.636113e+00, 2.065084e+00,-3.780000e-05, -7.830000e-05, 1.620000e-05,
2.734350e+01, 2.550475e+01, 1.556231e+00, 7.469909e+00, 5.188235e+00,-4.620726e+00, -1.843920e-01, 4.399296e-01,-3.180000e-05, -6.510000e-05, -1.005000e-05,
2.744695e+01, 2.526513e+01, 2.023100e+00, 5.042189e+00, 5.980716e+00,-6.544585e+00, -1.795424e+00, 5.275957e-01,-2.715000e-05, -4.290000e-05, -2.520000e-05,
2.755042e+01, 2.526513e+01, 2.363077e+00, 6.967127e-01, 9.928754e+00,-3.037672e-02, -1.249443e+00, 4.183461e-02,-2.610000e-05, -2.670000e-05, -2.760000e-05,
2.765388e+01, 2.560059e+01, 1.501164e+00, 1.235408e+00, 9.217676e+00,-1.073844e+00, -1.035473e+00, -1.500184e-01,-2.175000e-05, -1.890000e-05, -2.550000e-05,
2.775728e+01, 2.545682e+01, 2.269703e+00, -3.567360e-01, 9.940725e+00,1.086368e+00, -3.175167e+00, 5.952772e-01,-2.220000e-05, -1.050000e-05, -2.250000e-05,
2.786073e+01, 2.526513e+01, 2.808399e+00, -2.032677e+00, 1.137246e+01,-1.902542e+00, 2.591348e+00, 2.036839e+00,-1.935000e-05, -4.800000e-06, -2.130000e-05,
2.796415e+01, 2.540890e+01, 1.391031e+00, -3.737349e+00, 1.154245e+01,-4.064352e+00, -5.622359e-02, -7.754058e-02,-2.730000e-05, -2.400000e-06, -1.575000e-05,
2.806759e+01, 2.526513e+01, 2.446874e+00, -6.902483e+00, 6.842628e+00,-2.966793e+00, -2.368852e-01, 1.107152e+00,-2.955000e-05, 1.770000e-05, 7.200000e-06,
2.817097e+01, 2.560059e+01, 1.879448e+00, -1.370680e+01, 7.283161e+00,-8.205179e+00, 1.686708e-01, -4.596478e-01,-3.360000e-05, 1.965000e-05, 2.520000e-05,
2.827440e+01, 2.550475e+01, 1.991976e+00, -9.787496e+00, -1.881843e+00,-2.200181e+00, 1.209473e+00, -9.246248e-02,-3.030000e-05, 1.545000e-05, 4.995000e-05,
2.837784e+01, 2.531306e+01, 3.643975e+00, -8.736442e+00, -4.213795e+00,-4.539455e+00, 6.928025e-03, 3.314793e-01,-2.730000e-05, 3.900000e-06, 6.960000e-05,
2.848130e+01, 2.526513e+01, 2.094926e+00, -6.734889e+00, -7.587225e+00,-3.112282e+00, 1.425308e+00, 2.750159e+00,-2.910000e-05, -5.250000e-06, 7.590000e-05,
2.858475e+01, 2.540890e+01, -5.315128e-01, -2.525883e+00, -8.429984e+00,-2.054426e+00, -1.861507e+00, 1.081305e+00,-3.480000e-05, -2.190000e-05, 8.010000e-05,
2.868817e+01, 2.560059e+01, -1.829170e+00, -3.600879e+00, -9.414001e+00,-1.248377e+00, 5.025483e-01, 5.313262e-01,-3.885000e-05, -3.150000e-05, 7.860000e-05,
2.879176e+01, 2.545682e+01, -3.198653e+00, -1.616086e+00, -9.526528e+00,-8.529464e-01, 7.892619e-01, 7.674120e-01,-4.230000e-05, -3.810000e-05, 7.800000e-05,
2.889529e+01, 2.584021e+01, -2.782062e+00, -7.374141e-01, -8.441955e+00,-5.017489e-01, -7.967228e-02, 6.597611e-01,-4.530000e-05, -4.470000e-05, 7.515000e-05,
2.899877e+01, 2.560059e+01, -3.363853e+00, 3.311181e+00, -7.060501e+00,-3.757121e-01, -3.813078e-01, 9.792496e-01,-4.425000e-05, -4.875000e-05, 7.425000e-05,
2.910217e+01, 2.574436e+01, -2.363077e+00, 3.830723e-01, -8.221689e+00,-1.574793e+00, -8.377581e-01, 7.447627e-01,-4.305000e-05, -5.670000e-05, 7.035000e-05,
2.920564e+01, 2.550475e+01, -1.920150e+00, 4.577714e+00, -8.032547e+00,-1.210806e+00, -1.471406e+00, 3.418714e-01,-3.720000e-05, -6.675000e-05, 6.300000e-05,
2.930911e+01, 2.574436e+01, -1.637634e+00, 7.484274e+00, -8.161833e+00,-4.286316e+00, -2.044300e+00, 3.890352e-02,-3.405000e-05, -7.770000e-05, 4.695000e-05,
2.941253e+01, 2.579228e+01, -3.993528e+00, 7.220912e+00, -6.890512e+00,-1.598775e-01, -8.358928e-01, 6.163277e-01,-3.360000e-05, -7.935000e-05, 4.455000e-05,
2.951592e+01, 2.574436e+01, -3.074155e+00, 6.050148e+00, -5.482722e+00,-2.670487e+00, 2.384839e+00, -2.747228e+00,-3.195000e-05, -8.160000e-05, 4.125000e-05,
2.961936e+01, 2.584021e+01, -2.908955e+00, 6.519411e+00, -3.957615e+00,-6.247480e+00, -2.067482e+00, 2.763482e+00,-3.780000e-05, -8.025000e-05, 2.805000e-05,
2.972402e+01, 2.550475e+01, -3.435679e+00, 8.236054e+00, 1.149217e-01,-1.622490e+00, -8.923829e-01, -1.285149e+00,-3.615000e-05, -7.455000e-05, 2.850000e-06,
2.982775e+01, 2.550475e+01, -3.550601e+00, 4.398148e+00, 6.540959e+00,-1.313127e+00, -4.972190e-01, -1.444227e+00,-3.870000e-05, -4.455000e-05, -2.190000e-05,
2.993122e+01, 2.564852e+01, -4.982334e+00, 3.361459e+00, 8.434772e+00,-2.039770e+00, -1.585452e+00, -2.464778e+00,-3.765000e-05, -2.910000e-05, -2.205000e-05,
3.003472e+01, 2.550475e+01, -4.199430e+00, 2.128445e+00, 1.089122e+01,-1.482864e+00, 6.792129e-01, -5.425176e-01,-3.180000e-05, -1.950000e-05, -2.310000e-05,
3.013817e+01, 2.579228e+01, -4.872200e+00, -7.948750e-01, 1.074518e+01,-2.190322e-01, 5.958101e-01, 2.741899e-01,-3.180000e-05, -1.335000e-05, -2.040000e-05,
3.024165e+01, 2.593605e+01, -3.368642e+00, -2.509123e+00, 1.049379e+01,-4.641777e-01, 1.982481e-01, 9.009097e-01,-2.610000e-05, -1.080000e-05, -2.220000e-05,
3.034526e+01, 2.564852e+01, -3.938462e+00, -1.541866e+00, 8.197746e+00,-4.173602e+00, 8.047167e-01, 2.406156e-01,-3.180000e-05, -1.650000e-06, -1.620000e-05,
3.044868e+01, 2.560059e+01, -5.432444e+00, -5.872977e+00, 6.653486e+00,-5.046267e+00, -1.029611e+00, 1.480999e+00,-3.840000e-05, 9.750000e-06, -1.050000e-06,
3.055211e+01, 2.584021e+01, -3.734955e+00, -2.501941e+00, 1.053209e+01,-5.548015e+00, 4.724380e-01, 1.624622e+00,-4.005000e-05, 1.695000e-05, 2.205000e-05,
3.065553e+01, 2.593605e+01, -6.038177e+00, -7.529764e+00, -1.165976e+00,-5.185360e-01, 6.621593e-01, -2.965727e-01,-4.005000e-05, 1.050000e-05, 5.490000e-05,
3.075903e+01, 2.598398e+01, -5.418078e+00, -6.612785e+00, -4.481946e+00,-4.088067e+00, -3.016355e-01, 2.675283e-01,-3.885000e-05, -1.050000e-06, 6.945000e-05,
3.086254e+01, 2.579228e+01, -6.416460e+00, -5.640739e+00, -6.418855e+00,-9.712558e-01, -7.389005e-01, 1.344303e+00,-4.305000e-05, -1.110000e-05, 7.380000e-05,
3.096601e+01, 2.598398e+01, -5.406107e+00, -4.091691e+00, -6.471527e+00,2.709924e-01, -9.014426e-01, -1.406922e-01,-3.870000e-05, -1.980000e-05, 7.965000e-05,
3.106946e+01, 2.545682e+01, -7.740454e+00, -5.999869e+00, -8.695740e+00,2.635847e+00, 3.144257e-01, -1.630750e-01,-3.990000e-05, -1.830000e-05, 7.770000e-05,
3.117284e+01, 2.564852e+01, -5.200206e+00, -6.457162e+00, -5.501875e+00,2.257737e+00, -5.750261e-01, -1.295008e-01,-3.945000e-05, -6.900000e-06, 7.275000e-05,
3.127619e+01, 2.579228e+01, -7.141904e+00, -7.292738e+00, -2.583344e+00,5.515241e+00, -4.316692e-02, 9.344839e-01,-4.305000e-05, 3.150000e-06, 6.390000e-05,
3.137966e+01, 2.579228e+01, -5.825093e+00, -7.687782e+00, 2.595315e+00,-1.091164e+00, 1.098358e+00, -1.245179e+00,-4.065000e-05, 1.800000e-05, 2.565000e-05,
3.148314e+01, 2.584021e+01, -6.325481e+00, -4.781221e+00, 4.474763e+00,-1.188956e+00, -5.760919e-01, -3.434701e-01,-4.170000e-05, 1.590000e-05, 9.900000e-06,
3.158656e+01, 2.574436e+01, -6.040571e+00, -5.580884e+00, 5.461174e+00,8.731176e+00, -2.351531e+00, 2.839424e+00,-3.675000e-05, -7.500000e-07, -1.260000e-05,
3.169004e+01, 2.579228e+01, -3.387795e+00, 5.951985e+00, 7.220912e+00,-3.223130e+00, 2.721648e+00, -1.020551e+00,-2.835000e-05, -5.505000e-05, -1.980000e-05,
3.179354e+01, 2.550475e+01, -7.055712e+00, 1.878491e+01, 9.476250e+00,1.233988e+00, 1.535357e+00, 1.467142e+00,-3.375000e-05, -6.960000e-05, -5.850000e-06,
3.189700e+01, 2.593605e+01, -4.481946e+00, 8.456320e+00, 1.692701e+00,3.489060e+00, 2.182328e-01, -1.491124e+00,-3.405000e-05, -7.365000e-05, 3.000000e-07,
3.200044e+01, 2.603190e+01, -5.542577e+00, 8.066065e+00, -1.053449e-01,8.742634e-01, -7.117213e-01, 7.929924e-01,-3.780000e-05, -7.875000e-05, 2.385000e-05,
3.210390e+01, 2.593605e+01, -7.335834e+00, 4.386177e+00, -1.725022e+01,7.559541e-01, -8.886524e-01, 1.740533e+00,-3.525000e-05, -8.160000e-05, 3.315000e-05,
3.220736e+01, 2.593605e+01, -4.592079e+00, 6.181829e+00, -8.137891e+00,4.100858e-01, -2.560705e+00, 2.722447e+00,-3.000000e-05, -7.695000e-05, 5.415000e-05,
3.231715e+01, 2.593605e+01, -4.108450e+00, 5.501875e+00, -6.751649e+00,4.921562e+00, -1.455418e+00, 1.707225e+00,-2.325000e-05, -7.005000e-05, 6.270000e-05,
3.242053e+01, 2.560059e+01, -3.694253e+00, 3.303998e+00, -1.024239e+01,1.120741e+00, -6.517672e-01, 8.393568e-02,-2.505000e-05, -5.460000e-05, 7.755000e-05,
3.252390e+01, 2.593605e+01, -3.143587e+00, 2.178724e+00, -1.215297e+01,3.082172e+00, -7.711424e-01, 4.231424e-01,-1.530000e-05, -3.975000e-05, 7.980000e-05,
3.262730e+01, 2.598398e+01, -3.093309e+00, -2.973598e+00, -1.094868e+01,4.016123e+00, -2.992107e+00, 1.944910e+00,-2.115000e-05, -2.250000e-05, 8.145000e-05,
3.273072e+01, 2.593605e+01, -5.279215e+00, -3.076549e+00, -8.961497e+00,1.175899e+00, -2.172202e+00, 9.648607e-01,-2.490000e-05, -1.335000e-05, 7.920000e-05,
3.283406e+01, 2.579228e+01, -4.975151e+00, -4.288015e+00, -7.584831e+00,4.541587e+00, -1.166839e+00, 1.178297e+00,-2.970000e-05, -4.500000e-07, 7.200000e-05,
3.293752e+01, 2.579228e+01, -7.338228e+00, -6.102820e+00, -5.865794e-01,3.378744e+00, -2.909770e-01, 3.370750e-01,-3.990000e-05, 1.455000e-05, 4.860000e-05,
3.304096e+01, 2.564852e+01, -5.628768e+00, -7.122750e+00, -3.045425e+00,3.944444e+00, -8.739970e-02, 1.713354e-01,-3.585000e-05, 1.830000e-05, 3.945000e-05,
3.314428e+01, 2.579228e+01, -7.010222e+00, -8.508993e+00, -4.788403e-03,4.063553e+00, -4.492558e-01, 2.542052e-01,-3.495000e-05, 1.950000e-05, 2.385000e-05,
3.324771e+01, 2.598398e+01, -7.086837e+00, -8.149862e+00, -3.974375e-01,4.549847e+00, 1.436233e+00, 1.337375e+00,-4.125000e-05, 1.890000e-05, 1.485000e-05,
3.335122e+01, 2.593605e+01, -7.208941e+00, -4.355053e+00, 5.430049e+00,4.964729e+00, 1.167106e+00, 1.065850e-03,-4.515000e-05, -2.400000e-06, -9.300000e-06,
3.345470e+01, 2.564852e+01, -2.645593e+00, 1.337640e+01, 3.586993e+01,2.348334e+00, 5.774242e-01, -6.443063e-01,-5.850000e-05, -2.400000e-05, -1.200000e-05,
3.355813e+01, 2.603190e+01, -7.642292e+00, -1.393425e+00, 5.145139e+00,4.051829e+00, -6.176600e-01, 2.125838e+00,-5.490000e-05, -2.865000e-05, -1.770000e-05,
3.366160e+01, 2.560059e+01, -5.959168e+00, 2.121263e+00, 8.951920e+00,2.721914e+00, -8.268331e-01, 1.535357e+00,-4.230000e-05, -4.035000e-05, -2.070000e-05,
3.376507e+01, 2.584021e+01, -5.999869e+00, 2.999935e+00, 8.269573e+00,6.259204e-01, -4.902910e-01, -7.354365e-02,-3.720000e-05, -4.935000e-05, -2.130000e-05,
3.386848e+01, 2.584021e+01, -6.287174e+00, 3.787627e+00, 6.605602e+00,-2.813844e-01, -4.548515e-01, 3.120276e-01,-3.615000e-05, -4.905000e-05, -2.040000e-05,
3.397192e+01, 2.627151e+01, -7.065289e+00, 2.499547e+00, 7.745242e+00,-3.102956e+00, 2.220965e+00, -1.862573e-01,-3.825000e-05, -4.455000e-05, -2.145000e-05,
3.407540e+01, 2.598398e+01, -7.948750e+00, 4.525041e-01, 5.600038e+00,-7.019155e+00, -5.643676e-01, -2.737636e+00,-4.770000e-05, -1.935000e-05, -1.935000e-05,
3.417886e+01, 2.617567e+01, -7.208941e+00, -5.035006e+00, 4.857835e+00,-7.024218e+00, 1.517237e+00, -7.775375e-01,-4.590000e-05, -2.400000e-06, -9.600000e-06,
3.428226e+01, 2.631944e+01, -6.813898e+00, -1.259589e+01, -2.667141e+00,-8.731443e+00, 2.634781e+00, -2.299305e+00,-4.275000e-05, 1.575000e-05, 3.600000e-05,
3.438573e+01, 2.603190e+01, -4.819528e+00, -3.466804e+00, -7.977480e+00,-4.574095e+00, 1.935850e+00, -1.520435e+00,-3.030000e-05, -2.250000e-06, 7.140000e-05,
3.449033e+01, 2.612774e+01, -6.876147e+00, -4.213795e-01, 7.422025e-02,-4.872267e+00, 1.333378e+00, 3.421378e-01,-3.825000e-05, -7.350000e-06, 7.380000e-05,
3.459377e+01, 2.651113e+01, -6.514623e+00, 2.250550e+00, -7.534553e+00,-3.091231e+00, -2.528729e-01, -8.979786e-02,-4.170000e-05, -2.910000e-05, 7.785000e-05,
3.469723e+01, 2.612774e+01, -7.812280e+00, 5.588067e+00, -7.441179e+00,-2.988110e+00, -1.297139e+00, -6.991976e-01,-4.560000e-05, -4.725000e-05, 7.500000e-05,
3.480062e+01, 2.627151e+01, -5.817910e+00, 6.260837e+00, -3.126827e+00,-3.339041e+00, -3.510377e+00, 1.221464e+00,-4.905000e-05, -6.075000e-05, 6.330000e-05,
3.490398e+01, 2.627151e+01, -7.771579e+00, 7.304709e+00, -7.493851e-01,-2.199648e+00, 4.806983e-01, -7.242450e-01,-5.370000e-05, -6.660000e-05, 4.785000e-05,
3.500738e+01, 2.612774e+01, -7.524976e+00, 5.810727e+00, 8.954314e-01,-3.354496e+00, 5.635682e-01, -9.392803e-01,-5.730000e-05, -6.915000e-05, 3.450000e-05,
3.511083e+01, 2.636736e+01, -9.528923e+00, -5.482722e-01, -2.729390e+00,-2.882325e+00, 4.705728e-01, -3.296940e+00,-6.600000e-05, -5.955000e-05, 2.130000e-05,
3.521423e+01, 2.631944e+01, -8.030152e+00, -9.445126e+00, -3.399766e+00,-8.731443e+00, -5.051862e+00, -1.721881e+00,-6.900000e-05, -2.820000e-05, 1.500000e-07,
3.531766e+01, 2.631944e+01, -7.005434e+00, -4.149151e+00, 5.106832e+00,2.972123e+00, -3.150120e+00, -2.051761e-02,-6.090000e-05, -2.295000e-05, -7.350000e-06,
3.542110e+01, 2.655905e+01, -1.060392e+01, -1.692701e+00, -1.589750e+00,4.220766e-01, -5.379878e-01, 8.180398e-02,-6.015000e-05, -1.980000e-05, -7.800000e-06,
3.552444e+01, 2.651113e+01, -8.173804e+00, -5.324704e+00, 4.678270e+00,-1.499651e+00, -3.861041e-01, 1.945176e-01,-5.790000e-05, -1.545000e-05, -6.750000e-06,
3.562781e+01, 2.665490e+01, -7.596802e+00, -6.689399e+00, 4.149151e+00,-1.628086e+00, -2.590015e-01, 2.360858e-01,-5.550000e-05, -1.320000e-05, -7.950000e-06,
3.573125e+01, 2.627151e+01, -6.631939e+00, -8.202535e+00, 3.445256e+00,-1.878561e-01, 3.724080e+00, 1.790628e-01,-5.970000e-05, -8.400000e-06, -2.850000e-06,
3.583478e+01, 2.665490e+01, -7.472303e+00, -6.828263e+00, 1.395820e+00,-2.312361e+00, 1.167106e+00, -4.172803e-01,-6.015000e-05, -1.200000e-06, 8.100000e-06,
3.593835e+01, 2.651113e+01, -5.683835e+00, -8.671798e+00, -8.571242e-01,-2.005130e+00, -8.620062e-01, -1.413850e+00,-5.715000e-05, 5.250000e-06, 1.560000e-05,
3.604174e+01, 2.655905e+01, -4.912902e+00, -7.639897e+00, -2.947262e+00,-3.251375e+00, 6.360460e-01, -1.014956e+00,-5.385000e-05, 9.750000e-06, 2.775000e-05,
3.614525e+01, 2.646320e+01, -5.056554e+00, -5.020641e+00, -2.930503e+00,-5.468343e+00, -6.768147e-01, -6.315161e-01,-5.550000e-05, 8.700000e-06, 3.930000e-05,
3.624864e+01, 2.655905e+01, -6.205771e+00, -4.017470e+00, -7.505822e+00,-2.700331e+00, -4.665758e-01, -4.982849e-02,-5.685000e-05, 9.000000e-07, 5.775000e-05,
3.635204e+01, 2.651113e+01, -3.354277e+00, 1.848324e+00, -5.252878e+00,-8.801256e-01, 3.518371e+00, -2.401360e+00,-4.965000e-05, -1.875000e-05, 7.425000e-05,
3.645545e+01, 2.651113e+01, -4.592079e+00, 4.264073e+00, -5.738901e+00,-1.617427e+00, 4.330815e+00, -1.915599e+00,-4.005000e-05, -3.300000e-05, 7.830000e-05,
3.655889e+01, 2.655905e+01, -3.902549e-01, 6.248866e+00, -2.115995e+01,-8.731443e+00, 8.686677e-02, 6.867804e+00,-1.875000e-05, -5.370000e-05, 7.845000e-05,
3.666234e+01, 2.655905e+01, -4.905719e+00, -2.683900e+00, 1.067814e+00,8.731176e+00, -1.618760e+00, 2.991041e+00,-3.435000e-05, -6.480000e-05, 6.675000e-05,
3.676575e+01, 2.665490e+01, 3.416526e+00, 8.995016e+00, -5.631162e+00,-1.828199e+00, -1.813011e+00, -1.459415e+00,-1.980000e-05, -5.880000e-05, 7.485000e-05,
3.686920e+01, 2.670282e+01, 1.319205e+00, 8.286332e+00, -3.636792e+00,-5.242916e+00, -8.276325e-01, -2.649703e+00,-3.060000e-05, -6.465000e-05, 6.810000e-05,
3.697259e+01, 2.646320e+01, -1.199495e+00, 1.107797e+01, -2.176329e+00,-3.977486e+00, 1.364288e-01, -2.042701e+00,-3.810000e-05, -7.245000e-05, 5.265000e-05,
3.707602e+01, 2.651113e+01, -2.226608e-01, 5.681441e+00, 5.245696e+00,9.920398e-01, -2.214570e+00, 4.460582e-01,-3.585000e-05, -8.025000e-05, 3.180000e-05,
3.717945e+01, 2.670282e+01, -3.442862e+00, 1.043393e+01, 8.298303e+00,-6.323155e-01, 1.850049e+00, 3.290812e-01,-3.825000e-05, -7.980000e-05, 3.225000e-05,
3.728288e+01, 2.655905e+01, -1.233014e+00, 5.995081e+00, -2.944868e-01,-2.535657e+00, 3.202879e-01, -8.345605e-01,-3.420000e-05, -7.800000e-05, 8.850000e-06,
3.738652e+01, 2.665490e+01, -1.182736e+00, 1.417367e+00, 9.919177e+00,-2.794659e+00, 1.554276e+00, -9.635284e-01,-3.600000e-05, -6.105000e-05, -1.365000e-05,
3.749012e+01, 2.655905e+01, -4.898537e+00, 2.121263e+00, 8.846575e+00,-3.354230e+00, -1.160444e+00, 1.004564e+00,-4.410000e-05, -5.010000e-05, -1.635000e-05,
3.759394e+01, 2.670282e+01, -1.745373e+00, -4.216189e+00, 9.402030e+00,-6.036974e+00, 1.556141e-01, -1.356561e+00,-3.780000e-05, -3.540000e-05, -2.565000e-05,
3.769743e+01, 2.655905e+01, -3.430891e+00, -7.036559e+00, 6.042965e+00,-2.592946e+00, -2.070680e+00, -4.004931e-01,-4.290000e-05, -8.250000e-06, -1.590000e-05,
3.780094e+01, 2.679866e+01, -1.994370e+00, -7.924807e+00, 5.085284e+00,-5.840858e-01, 4.990842e-01, 1.854579e-01,-3.675000e-05, -7.500000e-07, -1.365000e-05,
3.790441e+01, 2.679866e+01, -1.522712e+00, -4.611232e+00, 1.122402e+01,-4.727577e+00, 2.056291e+00, 4.471241e-01,-4.185000e-05, 3.150000e-06, -8.100000e-06,
3.800785e+01, 2.689451e+01, -4.802769e+00, -1.060152e+01, -1.898602e+00,1.649669e+00, -9.949709e-01, -7.682114e-01,-4.425000e-05, 1.380000e-05, 1.125000e-05,
3.811132e+01, 2.684659e+01, -2.418144e+00, -8.935161e+00, 4.486734e+00,5.979152e+00, -8.771945e-01, -2.076809e+00,-3.825000e-05, 6.900000e-06, -5.400000e-06,
3.821475e+01, 2.679866e+01, -1.963245e+00, -8.588001e+00, 6.438008e+00,2.319556e+00, 3.216202e-01, -1.979816e-01,-3.615000e-05, -5.100000e-06, -1.575000e-05,
3.831818e+01, 2.655905e+01, -1.563414e+00, -2.580949e+00, 1.056082e+01,2.481832e+00, 3.328116e-01, -5.076110e-01,-3.885000e-05, -1.095000e-05, -1.860000e-05,
3.842168e+01, 2.655905e+01, -2.370260e+00, -5.669470e+00, 7.905654e+00,3.541819e+00, -1.451954e+00, -1.930254e+00,-4.245000e-05, -1.395000e-05, -1.755000e-05,
3.852514e+01, 2.703828e+01, -2.899378e+00, -4.929661e+00, 9.449914e+00,2.199914e+00, 6.091332e-01, 2.768545e-01,-4.470000e-05, -2.595000e-05, -2.115000e-05,
3.862857e+01, 2.670282e+01, -1.886631e+00, -3.263297e+00, 1.023042e+01,8.008530e+00, 2.024316e+00, 1.055191e+00,-4.500000e-05, -4.245000e-05, -1.905000e-05,
3.873195e+01, 2.670282e+01, -3.258508e+00, 2.688688e+00, 8.813056e+00,4.828833e+00, -9.747198e-01, 1.375746e+00,-4.740000e-05, -6.255000e-05, -7.200000e-06,
3.883535e+01, 2.679866e+01, -1.384567e+01, 7.098808e+00, -2.482787e+00,4.833097e+00, 1.480199e+00, -2.377112e+00,-4.500000e-05, -7.590000e-05, 9.900000e-06,
3.893878e+01, 2.684659e+01, -1.580173e+00, 9.258378e+00, 1.735796e+00,3.114946e+00, -6.208576e-02, 2.123706e-01,-4.290000e-05, -7.965000e-05, 3.585000e-05,
3.904217e+01, 2.670282e+01, -1.080264e+01, 2.208651e+01, -3.687071e+00,4.506414e+00, 1.350432e+00, -2.351798e+00,-4.680000e-05, -7.035000e-05, 5.250000e-05,
3.914698e+01, 2.689451e+01, -3.538630e+00, -2.944868e-01, -7.352593e+00,3.918864e+00, 1.076775e+00, -3.197550e-01,-4.650000e-05, -5.835000e-05, 6.675000e-05,
3.925048e+01, 2.679866e+01, 3.160346e-01, 4.936844e+00, -9.768343e+00,4.126172e+00, 2.518870e+00, 9.328852e-01,-3.210000e-05, -3.960000e-05, 8.070000e-05,
3.935407e+01, 2.684659e+01, 1.611298e+00, 1.683124e+00, -1.049857e+01,1.093829e+00, -3.157580e-01, -8.899847e-02,-2.805000e-05, -2.445000e-05, 8.220000e-05,
3.945756e+01, 2.684659e+01, 1.915361e-01, -1.039084e+00, -1.044590e+01,1.552677e+00, -8.079143e-01, -9.059725e-03,-3.015000e-05, -1.650000e-05, 7.995000e-05,
3.956097e+01, 2.665490e+01, 1.101333e+00, -8.690952e-01, -1.087686e+01,2.053893e+00, 6.637581e-01, -2.137029e-01,-2.490000e-05, -8.850000e-06, 7.725000e-05,
3.966446e+01, 2.679866e+01, 6.560113e-01, -4.728548e+00, -3.675100e+00,6.504083e+00, 7.839326e-01, 8.846555e-01,-2.400000e-05, 1.830000e-05, 5.130000e-05,
3.976789e+01, 2.684659e+01, 2.023100e+00, -1.134373e+01, -1.659182e+00,4.139761e+00, -2.129035e-01, 6.661562e-03,-2.655000e-05, 2.325000e-05, 2.490000e-05,
3.987132e+01, 2.689451e+01, -1.316811e-01, -9.859322e+00, 3.615245e+00,4.022251e+00, -7.173170e-01, 1.734937e+00,-3.810000e-05, 1.050000e-05, -7.500000e-07,
3.997477e+01, 2.670282e+01, -3.423708e-01, -6.447585e+00, 5.781997e+00,3.277489e+00, -1.017087e+00, -3.418714e-01,-3.600000e-05, -2.250000e-06, -1.590000e-05,
4.007818e+01, 2.679866e+01, -1.268927e-01, -4.927267e+00, 9.121908e+00,3.041669e+00, 1.548680e+00, 3.480000e-01,-3.375000e-05, -1.680000e-05, -2.460000e-05,
4.018164e+01, 2.679866e+01, -2.420538e+00, -2.992752e-01, 8.954314e+00,3.059522e+00, 2.598276e+00, -7.815345e-01,-4.560000e-05, -3.090000e-05, -2.220000e-05,
4.028508e+01, 2.651113e+01, -3.143587e+00, -1.048660e+00, 9.232042e+00,6.173936e-01, 8.428209e-01, 6.954671e-02,-5.040000e-05, -3.765000e-05, -1.695000e-05,
4.038853e+01, 2.689451e+01, -3.050213e+00, -3.313575e+00, 8.097190e+00,-7.136398e+00, -3.770444e-01, -2.088799e+00,-5.370000e-05, -2.400000e-05, -1.890000e-05,
4.049191e+01, 2.679866e+01, -2.705448e+00, -8.180987e+00, 4.431667e+00,-4.401694e+00, 1.511908e+00, -4.108852e-01,-4.500000e-05, 4.800000e-06, -3.750000e-06,
4.059536e+01, 2.703828e+01, -1.812411e+00, -7.479486e+00, -3.078943e+00,-2.963596e+00, 2.350199e-01, 1.523633e+00,-4.710000e-05, 1.530000e-05, 2.040000e-05,
4.069880e+01, 2.689451e+01, -4.371812e+00, -7.627926e+00, -4.759673e+00,-4.576493e+00, 5.406524e-01, 2.508478e+00,-5.325000e-05, 9.300000e-06, 4.710000e-05,
4.080220e+01, 2.703828e+01, 2.394202e-02, -6.449979e+00, -9.141062e+00,-1.086368e+00, 2.025115e-01, 8.516141e-01,-5.385000e-05, 1.500000e-06, 5.730000e-05,
4.090570e+01, 2.699036e+01, -3.287239e+00, -4.089296e+00, -8.870517e+00,-3.051795e+00, 6.469709e-01, -2.685942e-01,-5.550000e-05, -1.170000e-05, 6.525000e-05,
4.100918e+01, 2.689451e+01, -4.596867e+00, 3.567360e-01, -9.861717e+00,-2.775740e+00, 2.494089e-01, 4.609801e-01,-5.970000e-05, -3.240000e-05, 6.540000e-05,
4.111275e+01, 2.703828e+01, -1.221043e+00, 7.134721e-01, -1.762611e+01,-8.731443e+00, 6.741767e+00, -2.892184e+00,-5.520000e-05, -5.325000e-05, 6.390000e-05,
4.121616e+01, 2.718205e+01, -3.785233e+00, 9.885659e+00, -7.007828e+00,-7.830800e+00, 1.099424e+00, -1.245712e+00,-4.800000e-05, -6.840000e-05, 5.175000e-05,
4.131966e+01, 2.689451e+01, -1.819593e+00, 9.279926e+00, 1.280898e+00,-3.547149e+00, 6.664227e-01, 7.301072e-02,-5.040000e-05, -7.485000e-05, 3.450000e-05,
4.142323e+01, 2.699036e+01, -4.347870e+00, 8.738836e+00, 4.158728e+00,-4.395032e+00, -3.341440e-01, -8.252343e-01,-5.325000e-05, -7.005000e-05, 1.305000e-05,
4.152671e+01, 2.708620e+01, -2.652775e+00, 5.770026e+00, 7.735666e+00,-4.037706e+00, -1.287547e+00, -9.089035e-01,-5.565000e-05, -5.895000e-05, -2.400000e-06,
4.163006e+01, 2.689451e+01, -3.622427e+00, 3.411737e+00, 8.540117e+00,-5.862175e-02, 2.836760e+00, 1.448224e+00,-5.835000e-05, -5.160000e-05, -6.000000e-06,
4.173346e+01, 2.689451e+01, -4.812345e+00, 2.688688e+00, 8.489839e+00,-1.183093e-01, 1.486861e-01, 4.479234e-01,-6.240000e-05, -5.115000e-05, -1.500000e-06,
4.183689e+01, 2.689451e+01, -4.156334e+00, 2.078167e+00, 8.769961e+00,-1.213737e+00, 1.252374e-02, 3.218867e-01,-5.895000e-05, -4.530000e-05, -8.100000e-06,
4.194034e+01, 2.718205e+01, -2.681506e+00, 2.492364e+00, 1.008677e+01,-3.741133e+00, -2.238285e-02, 6.125973e-01,-5.715000e-05, -3.900000e-05, -1.260000e-05,
4.204423e+01, 2.699036e+01, -3.117251e+00, -2.971204e+00, 9.002198e+00,-3.716352e+00, 8.742634e-01, 4.372649e-01,-5.850000e-05, -2.550000e-05, -9.300000e-06,
4.214767e+01, 2.703828e+01, -7.857770e+00, -5.528212e+00, 4.180276e+00,-1.666190e+00, -8.700000e-01, -2.184992e-02,-6.960000e-05, -2.265000e-05, 5.250000e-06,
4.225108e+01, 2.689451e+01, -6.890512e+00, -6.363788e+00, 3.519476e+00,3.456018e-01, 2.502083e-01, -1.721348e-01,-6.960000e-05, -1.770000e-05, 6.750000e-06,
4.235454e+01, 2.689451e+01, -8.238448e+00, -7.208941e+00, 2.839523e+00,-9.771179e-01, -4.303369e-01, -5.838193e-01,-6.840000e-05, -1.440000e-05, 6.450000e-06,
4.245798e+01, 2.718205e+01, -7.984663e+00, -6.718130e+00, 1.137246e+00,-2.540986e+00, 7.865973e-01, -4.071547e-01,-6.900000e-05, -1.485000e-05, 1.155000e-05,
4.256137e+01, 2.708620e+01, -6.876147e+00, -5.956774e+00, -1.671153e+00,-4.660695e+00, 2.170071e+00, 2.339274e+00,-7.245000e-05, -1.020000e-05, 2.280000e-05,
4.266484e+01, 2.699036e+01, -7.003040e+00, -3.739743e+00, -2.367865e+00,-1.328848e+00, 1.553476e+00, -3.019020e-01,-7.275000e-05, -1.410000e-05, 3.300000e-05,
4.276814e+01, 2.718205e+01, -9.390059e+00, -6.177040e+00, -1.460463e+00,-1.556407e+00, 1.228659e+00, -5.238653e-01,-7.215000e-05, -1.515000e-05, 3.855000e-05,
4.287577e+01, 2.703828e+01, -6.272808e+00, -3.718195e+00, -4.309563e+00,-1.388270e+00, 2.243614e-01, -6.818775e-01,-7.005000e-05, -1.215000e-05, 4.425000e-05,
4.297921e+01, 2.699036e+01, -1.819354e+01, -1.549288e+01, -3.119405e+01,-1.126070e+00, -1.913201e-01, 6.469709e-01,-6.690000e-05, -9.750000e-06, 5.145000e-05,
4.308265e+01, 2.722997e+01, -3.725378e+00, -1.922544e+00, -6.112397e+00,-2.257204e+00, 6.067351e-01, 4.156815e-01,-6.585000e-05, -1.230000e-05, 5.820000e-05,
4.318606e+01, 2.699036e+01, -3.174711e+00, -9.097966e-02, -1.023761e+01,-3.696634e+00, 5.227994e-01, -3.972956e-01,-5.745000e-05, -2.610000e-05, 6.825000e-05,
4.328945e+01, 2.718205e+01, -2.643199e+00, 5.592855e+00, -8.590396e+00,-3.912202e+00, 5.736138e+00, -8.534794e-01,-5.115000e-05, -4.185000e-05, 7.275000e-05,
4.339293e+01, 2.708620e+01, -4.237737e-01, 5.904101e+00, -7.161057e+00,-3.661728e+00, -2.965727e-01, -5.172037e-01,-4.680000e-05, -5.400000e-05, 7.080000e-05,
4.349639e+01, 2.737374e+01, -1.951274e+00, 9.284714e+00, -6.591237e+00,-3.291078e+00, -1.549479e+00, 3.298806e-01,-4.920000e-05, -6.615000e-05, 5.700000e-05,
4.359981e+01, 2.689451e+01, -1.960851e+00, 1.003410e+01, -2.674323e+00,-3.170371e+00, 2.098126e+00, -2.651302e-01,-4.845000e-05, -7.230000e-05, 4.635000e-05,
4.370326e+01, 2.684659e+01, -1.977611e+00, 8.561665e+00, 1.915361e-01,-1.105553e+00, 4.796325e-02, -1.177764e+00,-5.370000e-05, -7.380000e-05, 3.570000e-05,
4.380668e+01, 2.679866e+01, -4.989516e+00, 9.461885e+00, -4.920084e+00,-2.900444e+00, 7.993875e-04, -6.589617e-01,-5.715000e-05, -6.975000e-05, 2.595000e-05,
4.391121e+01, 2.722997e+01, -4.687847e+00, 7.007828e+00, 4.039018e+00,-2.896714e+00, -1.038138e+00, -3.674518e-01,-5.910000e-05, -6.675000e-05, 1.410000e-05,
4.401469e+01, 2.718205e+01, -3.141193e+00, 4.905719e+00, 6.952762e+00,-2.563369e+00, 1.057856e-01, -2.795192e-01,-5.835000e-05, -5.580000e-05, -1.800000e-06,
4.411810e+01, 2.718205e+01, -4.362235e+00, 2.645593e+00, 8.590396e+00,-6.051097e+00, 7.418316e-01, -1.449556e-01,-6.120000e-05, -4.770000e-05, -6.450000e-06,
4.422154e+01, 2.684659e+01, -4.405331e+00, 1.359907e+00, 8.635885e+00,-1.022417e+00, 1.678980e+00, -6.235222e-01,-6.360000e-05, -3.975000e-05, -5.700000e-06,
4.432498e+01, 2.679866e+01, -5.861006e+00, 1.838747e+00, 8.497022e+00,-1.599041e+00, 4.743032e-01, 1.194818e+00,-6.885000e-05, -4.395000e-05, 1.050000e-06,
4.442848e+01, 2.718205e+01, -5.784391e+00, 2.377442e+00, 8.085219e+00,-2.179663e+00, -1.640343e+00, -8.183063e-01,-6.480000e-05, -4.440000e-05, -3.000000e-06,
4.453188e+01, 2.718205e+01, -3.162740e+00, 1.675941e-02, 9.777920e+00,-1.477534e+00, -1.247044e+00, -4.785666e-01,-5.670000e-05, -3.645000e-05, -1.290000e-05,
4.463530e+01, 2.708620e+01, -4.390966e+00, -2.990358e+00, 9.691728e+00,-5.198150e+00, -1.877761e+00, 7.452956e-01,-5.220000e-05, -2.310000e-05, -1.515000e-05,
4.473874e+01, 2.699036e+01, -2.908955e+00, -7.984663e+00, 3.962404e+00,-9.528699e-01, -4.050230e-02, 4.761685e-01,-5.115000e-05, -2.400000e-06, -7.800000e-06,
4.484212e+01, 2.718205e+01, -3.035848e+00, -8.403648e+00, 6.629544e+00,-4.207443e-01, 2.017121e-01, 1.236386e-01,-5.400000e-05, -1.500000e-07, -3.150000e-06,
4.494558e+01, 2.703828e+01, -2.571373e+00, -7.960721e+00, 5.181052e+00,-1.077574e+00, -3.477335e-01, 7.149189e-01,-5.385000e-05, 2.550000e-06, -7.500000e-07,
4.504893e+01, 2.718205e+01, -3.828328e+00, -3.833117e+00, 3.572149e+00,-6.585887e+00, 4.014257e+00, 6.099326e-01,-5.940000e-05, 6.600000e-06, 2.385000e-05,
4.515239e+01, 2.722997e+01, -2.964022e+00, -7.924807e+00, -3.660734e+00,-5.290080e+00, 2.746162e+00, 4.058224e-01,-5.505000e-05, 4.500000e-06, 4.770000e-05,
4.525578e+01, 2.732582e+01, -2.798822e+00, -5.106832e+00, -7.268796e+00,-8.010395e+00, 2.249210e+00, 6.006064e-01,-5.340000e-05, -1.440000e-05, 6.900000e-05,
4.535928e+01, 2.708620e+01, -1.529895e+00, -1.134852e+00, -9.126697e+00,-1.102355e+00, -2.398162e-01, 1.174300e+00,-5.085000e-05, -3.735000e-05, 7.500000e-05,
4.546272e+01, 2.722997e+01, -1.549048e+00, 2.281674e+00, -8.769961e+00,-1.017087e+00, -8.278990e-01, 1.209207e+00,-4.845000e-05, -4.680000e-05, 7.305000e-05,
4.556612e+01, 2.718205e+01, -3.093309e+00, 2.477999e+00, -9.311050e+00,-3.109617e-01, -8.345605e-01, -2.779204e-01,-5.250000e-05, -5.100000e-05, 6.855000e-05,
4.566958e+01, 2.703828e+01, -2.360683e+00, 1.053449e+00, -9.804256e+00,8.731176e+00, -6.227228e-01, -1.664591e+00,-5.385000e-05, -3.900000e-05, 7.065000e-05,
4.577297e+01, 2.732582e+01, -2.303222e+00, -4.067749e+00, -8.971074e+00,1.879360e+00, -3.661195e-01, -1.773841e+00,-4.995000e-05, -1.410000e-05, 7.035000e-05,
4.587640e+01, 2.718205e+01, -2.434903e+00, -8.068460e+00, -3.129222e+00,1.563069e+00, -2.291577e+00, -1.039470e+00,-5.250000e-05, 1.110000e-05, 3.915000e-05,
4.597981e+01, 2.708620e+01, -1.640028e+00, -8.468291e+00, 6.145916e+00,1.657397e+00, -1.880426e+00, 7.668790e-01,-4.575000e-05, 1.800000e-06, -7.500000e-06,
4.608325e+01, 2.722997e+01, -6.320692e-01, -6.959944e+00, 8.327033e+00,2.974254e+00, -2.225228e+00, 5.036141e-02,-3.675000e-05, -1.170000e-05, -1.980000e-05,
4.618678e+01, 2.708620e+01, 1.244985e+01, 4.936844e+00, 1.826297e+01,2.315026e+00, 8.548117e-01, 2.073878e+00,-2.835000e-05, -2.730000e-05, -2.475000e-05,
4.629019e+01, 2.703828e+01, 2.710236e+00, -5.937620e-01, 1.067096e+01,3.509311e+00, -1.833262e+00, -6.842757e-01,-1.830000e-05, -4.410000e-05, -2.340000e-05,
4.639372e+01, 2.703828e+01, 4.460398e+00, 1.029507e-01, 9.591172e+00,1.680579e+00, -5.603706e-01, -5.395865e-01,-6.150000e-06, -5.790000e-05, -1.545000e-05,
4.649715e+01, 2.737374e+01, 4.297592e+00, 3.761291e+00, 9.404424e+00,2.601473e+00, -6.421746e-02, 1.123672e+00,-2.700000e-06, -6.255000e-05, -9.150000e-06,
4.660056e+01, 2.732582e+01, 4.527435e+00, 7.412448e+00, 4.867412e+00,8.731176e+00, -9.360827e-01, -2.740300e+00,-3.300000e-06, -7.605000e-05, 9.300000e-06,
4.670396e+01, 2.732582e+01, 4.230554e+00, 5.554548e+00, 3.253720e+00,7.388205e+00, -2.741366e+00, -1.971289e+00,-9.300000e-06, -7.845000e-05, 4.200000e-05,
4.680738e+01, 2.718205e+01, 2.913743e+00, 1.033337e+01, -6.823475e-01,5.032677e+00, -3.178897e-01, 4.564502e-01,-1.020000e-05, -7.455000e-05, 5.280000e-05,
4.691081e+01, 2.718205e+01, 3.605668e+00, 6.387730e+00, -3.550601e+00,5.902411e+00, 3.113081e+00, 9.595314e-01,-4.950000e-06, -5.250000e-05, 7.380000e-05,
4.701421e+01, 2.722997e+01, 5.286397e+00, 5.786785e+00, -8.068460e+00,7.032744e+00, 2.151418e+00, -5.968760e-02,3.000000e-07, -3.450000e-05, 7.785000e-05,
4.711767e+01, 2.737374e+01, 5.566519e+00, 3.160346e-01, -7.043741e+00,2.075210e+00, 1.894548e-01, 2.105054e-01,3.600000e-06, -1.095000e-05, 7.335000e-05,
4.722115e+01, 2.718205e+01, 6.066907e+00, -3.354277e+00, -4.537012e+00,4.483764e+00, 2.522600e+00, 9.352833e-01,7.050000e-06, -2.700000e-06, 6.315000e-05,
4.732457e+01, 2.722997e+01, 8.370129e+00, -5.537788e+00, -4.896142e+00,1.443694e+00, 1.359492e+00, 1.172168e+00,1.185000e-05, 7.350000e-06, 4.365000e-05,
4.742813e+01, 2.718205e+01, 7.501034e+00, -4.908113e+00, -2.753332e+00,1.893216e+00, 2.446126e-01, 1.344303e+00,1.110000e-05, 1.230000e-05, 3.870000e-05,
4.753161e+01, 2.732582e+01, 8.626309e+00, -4.927267e+00, -4.886566e+00,1.673651e+00, -2.733905e-01, 3.088300e-01,7.650000e-06, 1.320000e-05, 4.005000e-05,
4.763506e+01, 2.708620e+01, 6.469133e+00, -6.100426e+00, -1.898602e+00,3.272692e+00, 7.354365e-01, 1.621691e+00,7.200000e-06, 1.545000e-05, 3.195000e-05,
4.773850e+01, 2.732582e+01, 5.980716e+00, -5.276820e+00, 6.703765e-02,3.418181e+00, 5.118744e-01, 7.663461e-01,0.000000e+00, 1.515000e-05, 7.200000e-06,
4.784196e+01, 2.732582e+01, 6.426037e+00, -6.988675e+00, 6.033388e-01,2.226294e+00, -1.543617e+00, 9.592650e-02,1.500000e-06, 7.950000e-06, 0.000000e+00,
4.794536e+01, 2.718205e+01, 5.887342e+00, -6.394913e+00, 1.929727e+00,8.731176e+00, 3.833862e+00, -1.176432e+00,7.800000e-06, 5.100000e-06, -1.650000e-06,
4.804882e+01, 2.732582e+01, 5.956774e+00, -4.338293e+00, 8.178593e+00,6.236022e+00, 5.044135e-01, 3.336110e-01,7.500000e-07, -1.815000e-05, -2.010000e-05,
4.815221e+01, 2.718205e+01, 6.689399e+00, -6.847417e-01, 9.509769e+00,4.254074e+00, 2.237752e+00, -5.102757e-01,-9.000000e-07, -4.005000e-05, -2.040000e-05,
4.826274e+01, 2.732582e+01, 6.976704e+00, 2.205060e+00, 8.995016e+00,5.136597e+00, -3.030211e+00, 5.856845e-01,-1.350000e-06, -5.700000e-05, -1.350000e-05,
4.836616e+01, 2.732582e+01, 8.283938e+00, 8.884882e+00, 1.024958e+01,3.181296e+00, 4.862940e-01, 4.767014e-01,-1.500000e-07, -6.585000e-05, -4.350000e-06,
4.846962e+01, 2.732582e+01, 5.652710e+00, 4.771644e+00, 5.978322e+00,1.830597e-01, 4.529862e-02, 5.409189e-02,0.000000e+00, -6.795000e-05, -3.000000e-06,
4.857299e+01, 2.756543e+01, 4.458003e+00, 1.549048e+00, 8.279149e+00,-2.613198e+00, 1.905473e+00, -1.638478e+00,-5.550000e-06, -6.630000e-05, -6.750000e-06,
4.867755e+01, 2.737374e+01, 3.622427e+00, 3.181894e+00, 7.338228e+00,-4.714254e+00, 2.137029e-01, -1.311262e+00,-1.530000e-05, -5.040000e-05, -2.205000e-05,
4.878095e+01, 2.708620e+01, 2.734178e+00, -1.544260e+00, 9.473856e+00,-3.925525e+00, 9.387473e-01, -3.130934e-01,-1.680000e-05, -3.090000e-05, -2.535000e-05,
4.888439e+01, 2.732582e+01, 4.096479e+00, -3.861847e+00, 9.449914e+00,3.410720e-01, 1.585185e+00, -7.301072e-01,-1.815000e-05, -8.700000e-06, -2.100000e-05,
4.898774e+01, 2.742166e+01, 3.763685e+00, -7.575254e+00, 6.531382e+00,-2.324885e+00, 1.912401e+00, 4.559173e-01,-2.745000e-05, 1.500000e-06, -1.410000e-05,
4.909126e+01, 2.718205e+01, 1.524149e+01, 9.169792e-01, -1.400369e+01,-8.731443e+00, 7.591516e-01, -3.874365e+00,-3.075000e-05, 1.545000e-05, 9.900000e-06,
4.919473e+01, 2.742166e+01, 9.935937e-01, -5.128380e+00, -2.360683e+00,-5.384408e+00, -4.974855e-01, 3.045666e-01,-2.865000e-05, 1.515000e-05, 4.965000e-05,
4.929813e+01, 2.732582e+01, 1.642422e+00, -7.156269e+00, -7.869741e+00,-1.594512e+00, 2.984380e-02, -7.386340e-01,-2.715000e-05, 1.050000e-06, 6.945000e-05,
4.940162e+01, 2.737374e+01, 2.236184e+00, -5.906495e+00, -8.212112e+00,-1.447424e+00, 2.845553e+00, -2.083737e+00,-2.265000e-05, -3.750000e-06, 7.485000e-05,
4.950499e+01, 2.699036e+01, 4.003105e+00, -3.263297e+00, -7.572860e+00,-1.655798e+00, 2.208974e-01, -8.124441e-01,-1.590000e-05, -3.600000e-06, 7.380000e-05,
4.960844e+01, 2.751751e+01, 3.576937e+00, -4.625598e+00, -8.884882e+00,-2.085868e+00, 3.490659e-01, 2.059755e-01,-1.425000e-05, -1.110000e-05, 7.695000e-05,
4.971184e+01, 2.761335e+01, 5.623980e+00, 2.130839e-01, -9.224859e+00,1.338441e+00, 3.321455e+00, -5.291945e-01,-1.335000e-05, -2.160000e-05, 8.130000e-05,
4.981531e+01, 2.742166e+01, 6.232107e+00, 0.000000e+00, -8.477868e+00,5.982083e-01, 7.354365e-02, 1.065850e-03,-5.400000e-06, -2.820000e-05, 7.875000e-05,
4.991871e+01, 2.722997e+01, 6.675034e+00, 8.834604e-01, -7.852981e+00,-2.486628e+00, 6.424411e-01, 8.361593e-01,-4.050000e-06, -3.480000e-05, 8.175000e-05,
5.002214e+01, 2.737374e+01, 6.643910e+00, 2.667141e+00, -6.768408e+00,-2.493290e+00, 3.226861e-01, -1.669121e+00,-1.800000e-06, -4.155000e-05, 7.800000e-05,
5.012559e+01, 2.732582e+01, 5.635951e+00, 4.144363e+00, -6.356605e+00,-6.160613e-01, 1.838591e-02, -9.358163e-01,-1.800000e-06, -4.905000e-05, 7.620000e-05,
5.022899e+01, 2.708620e+01, 5.772420e+00, 4.704606e+00, -5.793968e+00,-1.358159e+00, -3.583920e-01, 8.926493e-02,-4.200000e-06, -5.370000e-05, 7.380000e-05,
5.033243e+01, 2.751751e+01, 5.339070e+00, 4.850653e+00, -5.588067e+00,-1.777038e+00, -1.119142e-01, -8.686677e-02,-3.000000e-06, -5.700000e-05, 7.305000e-05,
5.043585e+01, 2.732582e+01, 6.607997e+00, 4.422090e+00, -7.280767e+00,-1.816208e+00, 2.528729e-01, 2.917764e-01,-5.550000e-06, -6.150000e-05, 6.900000e-05,
5.053927e+01, 2.751751e+01, 6.890512e+00, 5.329493e+00, -5.106832e+00,-2.431204e+00, 7.546218e-01, 2.598009e-01,-2.100000e-06, -6.810000e-05, 6.120000e-05,
5.064272e+01, 2.751751e+01, 6.792350e+00, 6.416460e+00, -3.394978e+00,-2.556974e+00, 1.501783e+00, -8.497489e-01,1.350000e-06, -7.305000e-05, 5.175000e-05,
5.074608e+01, 2.737374e+01, 4.206612e+00, 7.139509e+00, -1.192312e+00,-2.086401e+00, -2.504214e+00, -1.933985e+00,-5.550000e-06, -7.965000e-05, 3.585000e-05,
5.084954e+01, 2.722997e+01, 5.209783e+00, 8.336610e+00, 4.141969e-01,-1.311262e+00, 3.711822e-01, -9.981685e-01,-1.005000e-05, -8.040000e-05, 2.775000e-05,
5.095295e+01, 2.756543e+01, 5.018247e+00, 8.678981e+00, 1.407791e+00,-1.851648e+00, 2.398162e-02, -5.329250e-01,-1.560000e-05, -8.130000e-05, 2.145000e-05,
5.105639e+01, 2.737374e+01, 3.524265e+00, 8.049306e+00, 4.053383e+00,-6.621593e-01, 1.133798e+00, 2.984380e-01,-1.905000e-05, -8.115000e-05, 1.440000e-05,
5.115978e+01, 2.756543e+01, 2.839523e+00, 8.271967e+00, 5.662287e+00,-1.371482e+00, 1.297939e+00, -1.407988e+00,-2.040000e-05, -7.830000e-05, 9.600000e-06,
5.126327e+01, 2.718205e+01, 2.999935e+00, 7.012617e+00, 5.691017e+00,-1.041602e+00, -1.156714e+00, 3.003032e-01,-2.460000e-05, -7.515000e-05, -3.000000e-07,
5.136677e+01, 2.722997e+01, 4.829105e+00, -9.672575e-01, 1.549048e+01,1.508178e-01, -6.181930e-02, -6.059357e-01,-1.905000e-05, -4.695000e-05, -2.205000e-05,
5.147020e+01, 2.737374e+01, 4.216189e+00, 1.070208e+00, 1.114740e+01,-1.253972e+00, 3.810414e-02, -8.929158e-01,-1.905000e-05, -4.200000e-05, -2.445000e-05,
5.157366e+01, 2.737374e+01, 3.478775e+00, 1.371878e+00, 1.108276e+01,-1.831397e+00, 5.097427e-01, -1.462879e+00,-2.100000e-05, -3.375000e-05, -2.625000e-05,
5.167712e+01, 2.737374e+01, 2.056140e+01, -9.006987e+00, -1.141555e+01,-3.392334e+00, 6.706861e-01, -3.686509e+00,-2.145000e-05, -2.505000e-05, -2.595000e-05,
5.178050e+01, 2.756543e+01, 4.367024e+00, -1.972822e+00, 9.612720e+00,-1.201479e+00, -1.041868e-01, 2.051761e-02,-2.205000e-05, -1.605000e-05, -2.340000e-05,
5.188387e+01, 2.737374e+01, 5.626374e+00, -5.465962e+00, 8.640674e+00,-2.351265e+00, -1.053859e+00, -1.630750e+00,-1.365000e-05, -2.550000e-06, -1.635000e-05,
5.198729e+01, 2.756543e+01, 5.003881e+00, -4.529830e+00, 5.925649e+00,1.170303e+00, -9.014426e-01, 5.763584e-01,-5.850000e-06, 2.700000e-06, -1.125000e-05,
5.209078e+01, 2.751751e+01, 6.052542e+00, -5.406107e+00, 5.420473e+00,-2.198049e+00, -3.109617e-01, 4.020919e-01,-4.350000e-06, 3.750000e-06, -9.450000e-06,
5.219418e+01, 2.737374e+01, 5.777209e+00, -7.615955e+00, 3.919308e+00,-1.195084e+00, -1.239051e+00, 4.263400e-01,-4.050000e-06, 1.035000e-05, -2.100000e-06,
5.229764e+01, 2.737374e+01, 4.572925e+00, -6.596026e+00, 3.552995e+00,-6.038040e-01, 1.731207e+00, -1.172435e-02,-7.050000e-06, 1.305000e-05, 4.500000e-07,
5.240113e+01, 2.737374e+01, 5.820304e+00, -6.155492e+00, 3.227384e+00,-2.831963e+00, 3.043002e-01, 7.301072e-01,-7.800000e-06, 1.755000e-05, 8.100000e-06,
5.250455e+01, 2.751751e+01, 4.632780e+00, -8.688558e+00, 1.000776e+00,-5.497121e-01, -6.059357e-01, 1.998469e-01,-1.350000e-05, 2.025000e-05, 1.725000e-05,
5.260795e+01, 2.751751e+01, 5.499481e+00, -7.618350e+00, -7.637503e-01,-1.431170e+00, 4.796325e-02, -3.821072e-01,-1.560000e-05, 2.220000e-05, 2.805000e-05,
5.271143e+01, 2.742166e+01, 4.802769e+00, -8.875306e+00, 5.698200e-01,-2.713121e+00, -6.826769e-01, -1.284616e+00,-4.950000e-06, 1.875000e-05, 3.405000e-05,
5.281490e+01, 2.732582e+01, 6.306327e+00, -5.856217e+00, -4.096479e+00,-2.830365e+00, -7.455620e-01, 2.928423e-01,-3.750000e-06, 1.110000e-05, 5.520000e-05,
5.291836e+01, 2.737374e+01, 5.173870e+00, -4.604050e+00, -6.864176e+00,-5.108885e+00, -5.265299e-01, 1.233721e-01,-7.500000e-06, -4.350000e-06, 7.380000e-05,
5.302176e+01, 2.737374e+01, 5.667075e+00, -1.644817e+00, -7.455544e+00,-3.930588e+00, 4.993507e-01, 1.115678e+00,-7.050000e-06, -2.745000e-05, 8.115000e-05,
5.312520e+01, 2.732582e+01, 5.322310e+00, -1.268927e-01, -9.337386e+00,-1.570796e+00, -2.081072e-01, 8.076478e-01,-7.650000e-06, -3.255000e-05, 8.055000e-05,
5.322857e+01, 2.742166e+01, 9.311050e+00, 9.385271e-01, -9.895235e+00,-2.103455e+00, 2.005397e+00, 7.026616e-01,-3.000000e-06, -4.005000e-05, 7.770000e-05,
5.333321e+01, 2.761335e+01, 5.920861e+00, 9.121908e-01, -7.299921e+00,-3.456018e-01, -4.751026e-01, -8.310965e-01,-1.200000e-06, -4.365000e-05, 7.785000e-05,
5.343665e+01, 2.722997e+01, 5.813122e+00, 1.278504e+00, -8.149862e+00,-2.238018e+00, 2.963063e-01, -7.205146e-01,-2.700000e-06, -4.935000e-05, 7.590000e-05,
5.354011e+01, 2.718205e+01, 5.130774e+00, 3.031059e+00, -8.616732e+00,-5.454754e+00, 5.206677e-01, -1.348300e+00,-6.600000e-06, -6.390000e-05, 6.690000e-05,
5.364381e+01, 2.742166e+01, 5.796362e+00, 5.638345e+00, -5.147534e+00,-9.126340e-01, 5.483798e-01, 6.829434e-01,-8.250000e-06, -7.155000e-05, 5.625000e-05,
5.374721e+01, 2.751751e+01, 4.096479e+00, 3.184288e+00, -4.508282e+00,5.743066e+00, -1.518836e-02, 2.106652e+00,-3.300000e-06, -6.690000e-05, 6.195000e-05,
5.385057e+01, 2.751751e+01, 4.898537e+00, -2.643199e+00, -6.318298e+00,4.447792e+00, -3.948974e-01, 2.887654e+00,-3.000000e-07, -3.150000e-05, 7.665000e-05,
5.395415e+01, 2.737374e+01, 6.294356e+00, -5.944803e+00, -6.148310e+00,4.396631e-01, -1.894815e+00, 1.211072e+00,-1.350000e-06, -8.400000e-06, 7.350000e-05,
5.405778e+01, 2.737374e+01, 5.382165e+00, -4.115633e+00, -9.923966e+00,-3.319590e+00, -2.013391e+00, -3.029146e+00,1.800000e-06, -4.350000e-06, 7.230000e-05,
5.416121e+01, 2.722997e+01, 5.942409e+00, -6.514623e+00, -4.539406e+00,1.554009e+00, 3.058989e-01, 3.157580e-01,-3.300000e-06, 1.005000e-05, 5.895000e-05,
5.426462e+01, 2.756543e+01, 6.224924e+00, -7.165846e+00, -5.482722e-01,1.695767e+00, 2.787198e-01, 7.213140e-01,-4.200000e-06, 1.725000e-05, 4.635000e-05,
5.436808e+01, 2.737374e+01, 5.444415e+00, -8.396465e+00, 1.364695e+00,1.554009e+00, -1.889219e-01, -3.258836e-01,-3.600000e-06, 1.860000e-05, 3.930000e-05,
5.447151e+01, 2.751751e+01, 6.038177e+00, -6.947973e+00, 2.585738e+00,2.332080e+00, 8.934487e-01, -4.340674e-01,3.000000e-07, 1.815000e-05, 2.520000e-05,
5.457491e+01, 2.751751e+01, 5.365406e+00, -6.088455e+00, 3.292027e+00,4.601807e-01, 8.217703e-01, 2.584686e-01,-1.500000e-07, 1.905000e-05, 1.920000e-05,
5.467836e+01, 2.761335e+01, 6.351817e+00, -5.966351e+00, 4.364630e+00,1.196417e+00, 9.160980e-01, 3.304135e-02,7.500000e-07, 1.665000e-05, 1.410000e-05,
5.478175e+01, 2.756543e+01, 6.196194e+00, -6.897695e+00, 5.808333e+00,-3.503982e-01, -5.254640e-01, -1.174034e+00,2.550000e-06, 1.485000e-05, 1.200000e-05,
5.488519e+01, 2.756543e+01, 6.186617e+00, -5.889736e+00, 5.164293e+00,1.471139e+00, -1.859908e-01, 3.144257e-01,6.150000e-06, 1.410000e-05, 1.275000e-05,
5.498859e+01, 2.756543e+01, 7.879318e+00, -6.007052e+00, 4.108450e+00,-1.364288e-01, 5.627688e-01, 8.233691e-01,4.050000e-06, 1.245000e-05, 1.065000e-05,
5.509199e+01, 2.761335e+01, 7.278373e+00, -4.548983e+00, 4.613627e+00,1.172968e+00, 5.417182e-01, 8.569434e-01,1.350000e-06, 1.305000e-05, 4.650000e-06,
5.519542e+01, 2.770920e+01, 4.120421e+00, -5.327099e+00, 8.540117e+00,-4.263400e-03, -3.464012e-01, -5.806218e-01,-3.750000e-06, 1.110000e-05, -1.500000e-07,
5.529886e+01, 2.770920e+01, 4.955997e+00, -5.238513e+00, 7.611167e+00,-5.326585e-01, -3.256172e-01, 2.869801e-01,-2.100000e-06, 1.185000e-05, 4.500000e-07,
5.540236e+01, 2.761335e+01, 6.679823e+00, -5.480328e+00, 5.102044e+00,4.258071e-01, -2.656631e-01, -9.510046e-01,-3.000000e-07, 1.125000e-05, 2.250000e-06,
5.550578e+01, 2.751751e+01, 5.327099e+00, -3.967192e+00, 7.034164e+00,4.660429e-01, 2.608668e-01, -2.653966e-01,-3.000000e-07, 9.450000e-06, -1.050000e-06,
5.560925e+01, 2.770920e+01, 4.601656e+00, -4.216189e+00, 6.062119e+00,-6.403094e-01, -6.405758e-01, 5.649005e-02,-1.500000e-07, 9.300000e-06, 1.500000e-07,
5.571263e+01, 2.756543e+01, 6.040571e+00, -6.153098e-01, 7.407660e+00,1.230524e+00, 3.170904e-01, -1.104487e+00,5.550000e-06, 4.050000e-06, -4.950000e-06,
5.581600e+01, 2.751751e+01, 5.370194e+00, -2.621651e+00, 7.764396e+00,1.806083e+00, 4.982849e-02, -1.267296e+00,7.050000e-06, 1.950000e-06, -4.350000e-06,
5.591934e+01, 2.751751e+01, 6.481104e+00, -2.229002e+00, 6.902483e+00,1.020018e+00, 1.798622e-01, -7.983216e-01,9.600000e-06, -1.800000e-06, -7.200000e-06,
5.602278e+01, 2.756543e+01, 6.560113e+00, -1.580173e+00, 8.592790e+00,3.701164e-01, 8.033844e-01, -7.831333e-01,1.170000e-05, -4.050000e-06, -7.500000e-06,
5.612615e+01, 2.742166e+01, 6.722918e+00, -9.097966e-01, 7.541735e+00,-7.460950e-03, 2.454120e-01, -3.216202e-01,1.065000e-05, -7.650000e-06, -1.050000e-05,
5.622960e+01, 2.751751e+01, 6.866570e+00, -2.633622e-01, 7.577648e+00,1.796224e+00, 5.265299e-01, 6.499020e-01,1.155000e-05, -1.155000e-05, -1.200000e-05,
5.633298e+01, 2.756543e+01, 5.042189e+00, 2.272097e+00, 7.891289e+00,-4.918898e-01, 1.100490e-01, -4.679081e-01,9.300000e-06, -2.160000e-05, -1.635000e-05,
5.643646e+01, 2.756543e+01, 6.591237e+00, 4.812345e-01, 8.415619e+00,3.362757e+00, -1.844720e+00, 6.882726e-01,1.455000e-05, -2.685000e-05, -1.140000e-05,
5.653984e+01, 2.775712e+01, 7.381324e+00, 3.873818e+00, 3.409343e+00,5.168573e+00, -2.246012e+00, 1.583853e+00,1.980000e-05, -3.300000e-05, -8.400000e-06,
5.664326e+01, 2.761335e+01, 8.209717e+00, 4.618415e+00, 1.551443e+00,2.978518e+00, -1.360557e+00, -1.066383e+00,2.655000e-05, -4.110000e-05, 1.200000e-06,
5.674669e+01, 2.761335e+01, 7.398083e+00, 5.583278e+00, -4.027047e+00,2.180995e+00, -3.033409e+00, -8.606738e-01,2.955000e-05, -5.115000e-05, 3.165000e-05,
5.685005e+01, 2.751751e+01, 5.755661e+00, 3.900155e+00, -6.679823e+00,3.421112e+00, 7.143859e-01, -9.030414e-01,2.745000e-05, -5.085000e-05, 4.305000e-05,
5.695347e+01, 2.761335e+01, 1.747767e+01, 2.731784e+00, -4.093367e+01,6.254674e+00, 2.596410e+00, -1.729075e+00,2.340000e-05, -4.125000e-05, 5.835000e-05,
5.705695e+01, 2.761335e+01, 6.718130e+00, -3.550601e+00, -8.858546e+00,4.005997e+00, 6.147290e-01, -9.504717e-01,2.685000e-05, -2.175000e-05, 5.775000e-05,
5.716043e+01, 2.756543e+01, 1.025676e+01, -4.355053e+00, -1.105882e+01,8.731176e+00, -7.014359e+00, 1.907338e+00,2.430000e-05, -1.515000e-05, 5.535000e-05,
5.726389e+01, 2.770920e+01, 3.866636e+00, -7.615955e+00, -4.175488e+00,8.233691e-01, 2.736570e-01, 3.642542e-01,2.280000e-05, -2.400000e-06, 5.205000e-05,
5.736750e+01, 2.756543e+01, 1.606509e+00, -1.180341e+01, 1.137246e+00,2.851682e+00, 9.256907e-01, -2.222297e-01,1.860000e-05, 6.750000e-06, 4.080000e-05,
5.747093e+01, 2.756543e+01, 5.544971e+00, -7.836222e+00, 3.737349e+00,3.868769e+00, 6.768147e-01, -4.772343e-01,2.055000e-05, 5.550000e-06, 2.520000e-05,
5.757445e+01, 2.770920e+01, 3.615245e+00, -6.801927e+00, 3.428497e+00,6.248545e-01, -2.813844e-01, 4.593813e-01,1.980000e-05, 4.050000e-06, 1.560000e-05,
5.767787e+01, 2.770920e+01, 4.082114e+00, -6.263232e+00, 7.199364e+00,2.582554e+00, 4.870934e-01, -1.506046e+00,2.085000e-05, -9.000000e-07, 5.100000e-06,
5.778127e+01, 2.756543e+01, 4.252102e+00, -1.881843e+00, 8.781932e+00,1.778904e+00, 1.051994e+00, -1.431703e+00,2.160000e-05, -1.530000e-05, -5.100000e-06,
5.788467e+01, 2.761335e+01, 3.667917e+00, -1.197101e+00, 1.034535e+01,9.840460e-01, 3.117611e+00, 3.996937e-03,1.650000e-05, -2.655000e-05, -1.170000e-05,
5.798808e+01, 2.770920e+01, 4.783615e+00, -4.424485e+00, 6.026206e+00,-3.983614e-01, -3.240450e+00, 4.551179e-01,1.410000e-05, -2.655000e-05, -1.410000e-05,
5.809265e+01, 2.761335e+01, 7.704541e+00, -7.331045e+00, 9.119514e+00,-5.142726e-01, -2.956135e+00, -8.766616e-02,2.730000e-05, -1.335000e-05, 3.600000e-06,
5.819607e+01, 2.756543e+01, 6.818686e+00, -6.634333e+00, 4.352659e+00,-5.728144e+00, -2.164208e+00, -2.083737e-01,3.210000e-05, -9.300000e-06, 2.955000e-05,
5.829958e+01, 2.775712e+01, 1.061110e+01, -6.236895e+00, 4.072537e+00,-2.750959e+00, -1.989942e+00, 3.956968e-01,3.015000e-05, -1.230000e-05, 4.410000e-05,
5.840298e+01, 2.785297e+01, 7.833828e+00, -5.389348e+00, -4.450821e+00,-3.741400e+00, -7.863308e-01, -3.924992e-01,2.775000e-05, -2.475000e-05, 5.550000e-05,
5.850659e+01, 2.756543e+01, 9.919177e+00, -2.657564e+00, -5.834669e+00,-1.273158e+00, 7.903277e-01, -2.264398e+00,2.715000e-05, -3.375000e-05, 5.460000e-05,
5.861004e+01, 2.761335e+01, 8.236054e+00, 3.830723e-01, -6.603208e+00,-8.312564e+00, 2.493556e+00, -6.181930e-02,2.670000e-05, -4.965000e-05, 4.965000e-05,
5.871347e+01, 2.761335e+01, 1.075475e+01, 4.505888e+00, -4.297592e+00,-5.790230e+00, 2.762950e+00, 6.949342e-01,2.655000e-05, -5.550000e-05, 1.845000e-05,
5.881692e+01, 2.751751e+01, 8.592790e+00, 6.679823e-01, -2.011129e-01,-1.290478e+00, -8.689342e-01, -6.056692e-01,2.790000e-05, -5.265000e-05, 2.055000e-05,
5.892040e+01, 2.775712e+01, 8.669404e+00, 4.029441e+00, -1.939303e+00,-1.580922e+00, 3.970291e-02, -5.593048e-01,3.075000e-05, -5.010000e-05, 1.860000e-05,
5.902943e+01, 2.761335e+01, 8.822633e+00, 4.537012e+00, -8.762778e-01,-1.866836e+00, 4.148821e-01, -4.183461e-02,3.240000e-05, -4.095000e-05, 1.515000e-05,
5.913283e+01, 2.761335e+01, 9.167398e+00, 2.128445e+00, 1.505953e+00,-3.903143e+00, 2.189789e+00, 5.779571e-01,3.090000e-05, -3.390000e-05, 6.300000e-06,
5.923620e+01, 2.785297e+01, 8.257602e+00, 8.475474e-01, 4.302380e+00,-1.533492e+00, 7.562205e-01, 1.492190e-02,2.805000e-05, -2.625000e-05, 2.850000e-06,
5.933961e+01, 2.737374e+01, 8.930372e+00, 1.515530e+00, 5.133168e+00,-1.282750e+00, 2.062420e-01, 7.314395e-01,2.805000e-05, -2.400000e-05, 1.200000e-06,
5.944304e+01, 2.761335e+01, 7.905654e+00, 1.477222e+00, 4.220978e+00,-6.701532e-01, 8.452190e-01, 8.801256e-01,2.400000e-05, -1.650000e-05, 4.500000e-07,
5.954648e+01, 2.785297e+01, 8.583213e+00, 9.576807e-02, 5.485116e+00,-3.357427e-01, 3.090965e-02, -4.796325e-03,2.430000e-05, -1.440000e-05, -1.500000e-06,
5.964992e+01, 2.790089e+01, 1.140598e+01, 1.283292e+00, -9.409213e-01,3.549280e-01, 1.649403e-01, 5.249311e-02,2.460000e-05, -1.440000e-05, 0.000000e+00,
5.975330e+01, 2.751751e+01, 8.918401e+00, 1.620875e+00, 4.510676e+00,-8.007198e-01, 5.419847e-01, 9.144993e-01,2.595000e-05, -1.665000e-05, 1.500000e-06,
5.985669e+01, 2.790089e+01, 8.599972e+00, 3.136404e-01, 4.343082e+00,-4.729709e-01, -1.494855e-01, -4.130169e-02,2.505000e-05, -1.440000e-05, 1.800000e-06,
5.996007e+01, 2.761335e+01, 7.781155e+00, 1.268927e+00, 3.447650e+00,-3.901011e-01, -7.631486e-01, -9.326187e-03,2.670000e-05, -1.470000e-05, 3.750000e-06,
6.006346e+01, 2.775712e+01, 8.530541e+00, -2.394202e-03, 4.400543e+00,-5.710291e-01, -1.020018e+00, -1.061587e+00,2.835000e-05, -1.440000e-05, 6.000000e-06,
6.016685e+01, 2.785297e+01, 1.058716e+01, -1.821987e+00, 5.722142e-01,6.830766e+00, -3.473871e+00, 1.102888e+00,3.150000e-05, -1.815000e-05, 9.450000e-06,
6.027024e+01, 2.770920e+01, 8.006210e+00, 9.576807e-03, 2.346318e-01,-6.741501e-02, -3.666524e-01, 1.414383e+00,1.830000e-05, -1.230000e-05, -4.350000e-06,
6.037375e+01, 2.790089e+01, 7.989451e+00, -3.222595e+00, 3.246537e+00,3.438165e+00, 1.022417e+00, -8.995774e-01,2.955000e-05, -1.440000e-05, 1.335000e-05,
6.047717e+01, 2.761335e+01, 8.063671e+00, -4.381389e+00, -3.112462e-01,5.318858e+00, 2.400827e+00, -2.334478e+00,2.460000e-05, -3.255000e-05, -1.500000e-06,
6.058054e+01, 2.761335e+01, 9.536105e+00, 3.145981e+00, 2.200271e+00,-2.765881e-01, -1.914267e+00, 3.866371e-01,2.460000e-05, -2.805000e-05, -2.550000e-06,
6.068393e+01, 2.761335e+01, 9.320627e+00, 1.647211e+00, 3.782839e-01,-2.795991e+00, -4.243415e+00, -5.419847e-01,3.270000e-05, -2.580000e-05, 1.635000e-05,
6.078734e+01, 2.751751e+01, 8.784326e+00, 3.610456e+00, -2.736572e+00,-3.169305e+00, -9.955039e-01, 6.195253e-01,3.345000e-05, -2.820000e-05, 3.645000e-05,
6.089075e+01, 2.794881e+01, 6.993463e+00, 2.932897e+00, -4.845864e+00,-1.575593e+00, 1.124472e-01, 2.372848e+00,3.345000e-05, -2.145000e-05, 4.290000e-05,
6.099412e+01, 2.775712e+01, 9.998186e+00, 2.645593e+00, -3.124433e+00,-1.235320e+00, -1.356561e+00, -6.475038e-02,3.015000e-05, -1.650000e-05, 4.785000e-05,
6.109754e+01, 2.775712e+01, 7.582437e+00, 1.917756e+00, -4.527435e+00,-6.890720e-01, -1.511375e+00, 3.916999e-02,2.490000e-05, -2.145000e-05, 5.820000e-05,
6.120096e+01, 2.770920e+01, 7.991845e+00, 1.900996e+00, -5.985504e+00,-9.869771e-01, -2.048830e+00, -1.923859e-01,1.980000e-05, -2.505000e-05, 6.225000e-05,
6.130440e+01, 2.785297e+01, 6.715736e+00, 2.171541e+00, -5.758055e+00,1.390934e-01, 3.919663e-01, 3.559939e-01,1.650000e-05, -2.535000e-05, 6.720000e-05,
6.140773e+01, 2.775712e+01, 8.044518e+00, 1.505953e+00, -5.291186e+00,-1.652067e-01, 1.640077e+00, -2.121041e-01,2.250000e-05, -2.400000e-05, 6.045000e-05,
6.151119e+01, 2.790089e+01, 8.736442e+00, 8.427590e-01, -5.147534e+00,-3.398729e+00, 1.734671e-01, 6.022052e-02,2.400000e-05, -1.830000e-05, 5.700000e-05,
6.161456e+01, 2.785297e+01, 7.132327e+00, 1.795651e-01, -5.243302e+00,1.002965e+00, -9.310199e-01, 1.244113e+00,2.100000e-05, -1.320000e-05, 5.955000e-05,
6.171800e+01, 2.775712e+01, 7.668628e+00, 1.345541e+00, -5.645528e+00,-7.759388e-01, -5.569066e-02, 1.839124e+00,1.650000e-05, -1.365000e-05, 6.255000e-05,
6.182139e+01, 2.775712e+01, 7.659051e+00, -2.801216e-01, -5.597643e+00,4.759020e-01, 1.606769e-01, 4.687075e-01,1.635000e-05, -1.485000e-05, 6.435000e-05,
6.192480e+01, 2.770920e+01, 8.252813e+00, -6.464344e-02, -5.959168e+00,7.194487e-02, 1.173501e+00, 4.894916e-01,1.635000e-05, -1.230000e-05, 6.195000e-05,
6.202815e+01, 2.756543e+01, 8.961497e+00, 3.758897e-01, -5.681441e+00,-2.258003e+00, -8.625391e-01, -5.142726e-02,1.815000e-05, -1.470000e-05, 6.225000e-05,
6.213165e+01, 2.794881e+01, 7.505822e+00, 1.544260e+00, -4.481946e+00,-1.044266e+00, -6.999970e-01, -4.663094e-01,1.635000e-05, -2.250000e-05, 6.735000e-05,
6.223507e+01, 2.775712e+01, 7.086837e+00, 2.545036e+00, -4.556166e+00,-3.457084e+00, -2.163675e+00, -9.006432e-02,9.900000e-06, -3.510000e-05, 7.200000e-05,
6.233857e+01, 2.775712e+01, 8.492233e+00, 4.295198e+00, -4.477157e+00,1.204943e+00, 1.002698e+00, -3.538622e-01,1.020000e-05, -4.185000e-05, 7.035000e-05,
6.244207e+01, 2.804466e+01, 7.484274e+00, 3.742137e+00, -2.288857e+00,-6.651170e+00, 4.070747e+00, -2.664625e-01,1.800000e-05, -4.605000e-05, 6.360000e-05,
6.254573e+01, 2.794881e+01, 7.242460e+00, 1.264138e+00, 2.224213e+00,-6.277856e+00, 2.043501e+00, 2.435201e+00,2.550000e-05, -5.415000e-05, 4.080000e-05,
6.264921e+01, 2.785297e+01, 8.516175e+00, 2.908955e+00, 3.696647e+00,-2.065617e+00, 8.662696e-01, -1.566799e+00,2.595000e-05, -5.685000e-05, 3.195000e-05,
6.275265e+01, 2.785297e+01, 7.230489e+00, 2.329558e+00, 3.289633e+00,-1.076508e-01, 3.895682e-01, 6.245881e-01,2.370000e-05, -5.745000e-05, 2.265000e-05,
6.285725e+01, 2.814050e+01, 6.330269e+00, 2.564190e+00, 5.987898e+00,-3.177565e+00, -1.227326e+00, -3.887688e-01,2.220000e-05, -5.985000e-05, 1.560000e-05,
6.296076e+01, 2.804466e+01, 8.324639e+00, 1.163582e+00, 8.214506e+00,-4.553045e+00, 6.936019e-01, -1.147387e+00,1.815000e-05, -5.685000e-05, 2.550000e-06,
6.306424e+01, 2.785297e+01, 9.052476e+00, 4.525041e-01, 7.062895e+00,-1.202279e+00, 2.366187e-01, -3.330781e-01,1.935000e-05, -5.610000e-05, 3.750000e-06,
6.316779e+01, 2.809258e+01, 9.176975e+00, 1.412579e-01, 4.601656e+00,1.103155e-01, -4.926891e-01, 2.009127e+00,2.145000e-05, -4.695000e-05, -7.500000e-07,
6.327126e+01, 2.775712e+01, 8.882488e+00, -1.936909e+00, 4.120421e+00,-6.048698e-01, 2.038438e-01, 9.139663e-02,2.265000e-05, -3.975000e-05, -3.000000e-06,
6.337483e+01, 2.756543e+01, 9.469068e+00, -2.487576e+00, 9.095572e+00,-9.888423e-01, -1.410919e+00, -3.535957e-01,2.250000e-05, -3.885000e-05, -3.150000e-06,
6.347831e+01, 2.775712e+01, 9.081207e+00, -4.716577e+00, -1.656788e+00,-6.562971e-01, 1.356561e+00, 6.869403e-01,2.925000e-05, -3.165000e-05, 5.100000e-06,
6.358174e+01, 2.804466e+01, 9.052476e+00, -5.578490e-01, 2.257732e+00,-1.710689e-01, 4.465911e-01, 2.350199e-01,2.775000e-05, -3.045000e-05, 1.200000e-06,
6.368519e+01, 2.814050e+01, 1.023761e+01, -2.624045e+00, 4.642357e+00,3.093097e+00, 2.725911e-01, 1.405856e+00,2.625000e-05, -3.225000e-05, 3.000000e-07,
6.378885e+01, 2.785297e+01, 1.137964e+01, -2.920926e-01, 3.409343e+00,1.990741e+00, -1.199081e-02, -2.010992e+00,2.595000e-05, -4.170000e-05, 3.300000e-06,
6.389225e+01, 2.794881e+01, 9.265560e+00, 1.656788e+00, 2.406173e+00,4.602873e+00, -1.055724e+00, -1.541752e+00,2.520000e-05, -5.550000e-05, 1.725000e-05,
6.399572e+01, 2.761335e+01, 9.593566e+00, 2.887407e+00, -8.236054e-01,3.237253e+00, 2.957734e-01, 2.187657e-01,2.805000e-05, -5.400000e-05, 3.525000e-05,
6.409932e+01, 2.770920e+01, 9.028534e+00, 3.837905e+00, -8.403648e-01,2.582288e+00, 1.446358e+00, -4.764349e-01,2.550000e-05, -5.385000e-05, 4.275000e-05,
6.420280e+01, 2.804466e+01, 9.267955e+00, 2.525883e+00, -2.377442e+00,1.417847e+00, -2.789862e+00, 4.204778e-01,1.935000e-05, -5.160000e-05, 5.385000e-05,
6.430621e+01, 2.770920e+01, 7.912836e+00, 1.503559e+00, -1.118092e+00,3.949241e+00, 1.722946e+00, 3.911669e-01,1.965000e-05, -4.530000e-05, 5.940000e-05,
6.441286e+01, 2.775712e+01, 8.418013e+00, 3.289633e+00, -1.312023e+00,-3.048331e-01, -1.474337e+00, 2.280919e-01,1.905000e-05, -3.795000e-05, 6.405000e-05,
6.451622e+01, 2.794881e+01, 7.862558e+00, 3.066972e+00, -3.746926e+00,-3.501317e-01, 1.298738e+00, -2.009127e-01,1.515000e-05, -3.510000e-05, 6.780000e-05,
6.461963e+01, 2.761335e+01, 8.410830e+00, 2.762909e+00, -3.952827e+00,-1.124472e+00, 6.621593e-01, 5.510444e-01,1.920000e-05, -3.660000e-05, 6.390000e-05,
6.472308e+01, 2.775712e+01, 8.896853e+00, -1.302446e+00, -2.123657e+00,-6.975988e-01, 1.548147e-01, 1.675516e+00,1.935000e-05, -3.330000e-05, 6.300000e-05,
6.482650e+01, 2.804466e+01, 9.107543e+00, -6.200982e-01, -4.584896e+00,9.219602e-02, -1.016821e+00, 3.277489e-02,1.695000e-05, -3.030000e-05, 6.750000e-05,
6.492995e+01, 2.804466e+01, 8.262390e+00, -2.319981e+00, -5.257667e+00,-7.370352e-01, -5.625023e-01, 4.010260e-01,1.530000e-05, -2.760000e-05, 6.900000e-05,
6.503335e+01, 2.790089e+01, 7.599196e+00, -3.201048e+00, -4.493917e+00,-1.233721e+00, 4.902910e-02, 1.547348e+00,1.155000e-05, -2.595000e-05, 7.230000e-05,
6.513677e+01, 2.804466e+01, 8.458714e+00, -3.306392e+00, -4.094085e+00,8.542787e-01, 1.266230e+00, 1.706426e+00,1.410000e-05, -2.235000e-05, 6.825000e-05,
6.524015e+01, 2.804466e+01, 7.110779e+00, -4.898537e+00, -3.071761e+00,8.374916e-01, 6.914702e-01, 1.604904e+00,1.770000e-05, -1.590000e-05, 6.330000e-05,
6.534364e+01, 2.790089e+01, 6.366182e+00, -4.841076e+00, -9.050082e-01,-7.551547e-01, 1.284882e+00, 7.849985e-01,2.280000e-05, -8.850000e-06, 5.670000e-05,
6.544715e+01, 2.794881e+01, 6.845023e+00, -8.647856e+00, -1.185130e+00,-1.069580e+00, 1.466610e+00, -6.504349e-01,2.460000e-05, -1.245000e-05, 5.265000e-05,
6.555056e+01, 2.823635e+01, 8.755595e+00, -7.675811e+00, 3.088520e-01,-2.803718e+00, 7.127872e-01, -3.703829e-02,2.970000e-05, -2.175000e-05, 4.710000e-05,
6.565401e+01, 2.814050e+01, 7.996634e+00, -3.722984e+00, -3.004723e+00,2.463979e+00, -2.058956e+00, -5.137397e-01,2.460000e-05, -3.600000e-05, 5.640000e-05,
6.575741e+01, 2.804466e+01, 7.465121e+00, -3.447650e+00, -5.147534e-01,8.731176e+00, 1.859375e+00, 1.224662e+00,2.100000e-05, -2.985000e-05, 6.225000e-05,
6.586087e+01, 2.790089e+01, 1.008677e+01, -3.660734e+00, -2.753332e-01,8.731176e+00, -5.048132e+00, -2.820505e+00,2.490000e-05, -1.950000e-06, 3.915000e-05,
6.596429e+01, 2.775712e+01, 1.116177e+01, -2.882619e+00, -1.199495e+00,2.491957e+00, 1.036539e-01, 3.323853e+00,2.625000e-05, -3.000000e-06, 3.390000e-05,
6.606774e+01, 2.770920e+01, 8.760384e+00, -2.461239e+00, 2.923320e+00,-2.406156e-01, 1.441296e+00, 2.560705e-01,2.055000e-05, 4.500000e-06, 2.595000e-05,
6.617119e+01, 2.794881e+01, 8.013393e+00, -2.401384e+00, 2.600103e+00,3.360092e+00, 1.567066e+00, 1.471939e+00,1.755000e-05, 5.850000e-06, 1.575000e-05,
6.627456e+01, 2.809258e+01, 7.503428e+00, -3.663129e+00, 7.570466e+00,3.890619e+00, 1.023482e+00, 1.728009e+00,1.410000e-05, 5.250000e-06, 7.950000e-06,
6.637805e+01, 2.790089e+01, 8.001422e+00, -4.027047e+00, 4.450821e+00,2.999568e+00, 3.927657e-01, 2.754956e+00,1.335000e-05, 6.000000e-06, 7.950000e-06,
6.648144e+01, 2.790089e+01, 8.176199e+00, -4.074931e+00, 3.615245e+00,8.194254e+00, -2.137562e+00, 5.012959e+00,1.290000e-05, 1.500000e-06, -7.500000e-07,
6.658492e+01, 2.804466e+01, 6.806715e+00, -2.159570e+00, 1.722149e+01,3.834662e+00, 4.028113e+00, 1.951571e+00,7.500000e-06, -4.350000e-06, -1.080000e-05,
6.668845e+01, 2.775712e+01, 7.017405e+00, -1.438915e+00, 6.059724e+00,1.997136e+00, -2.066950e+00, 1.673384e-01,7.500000e-06, -1.185000e-05, -1.275000e-05,
6.679185e+01, 2.809258e+01, 7.903260e+00, -3.734955e+00, 9.361328e+00,3.064319e-01, -5.081440e-01, 7.159847e-01,8.700000e-06, -1.230000e-05, -1.380000e-05,
6.689530e+01, 2.804466e+01, 8.635885e+00, -4.560954e+00, 3.071761e+00,-3.563669e+00, -2.297173e+00, -1.772775e+00,6.750000e-06, -1.020000e-05, -1.215000e-05,
6.699872e+01, 2.804466e+01, 9.150639e+00, -9.481039e-01, 8.690952e-01,7.334114e+00, -6.265865e+00, 2.151418e+00,1.050000e-05, -1.215000e-05, -1.365000e-05,
6.710212e+01, 2.828427e+01, 7.539341e+00, -3.495534e-01, 5.250484e+00,2.731507e+00, 3.991608e-01, -7.420980e-01,1.560000e-05, -2.250000e-05, -1.200000e-05,
6.720557e+01, 2.770920e+01, 9.076418e+00, 2.066196e+00, 4.558560e+00,2.250276e+00, -1.265430e+00, -1.814610e-01,1.815000e-05, -2.985000e-05, -1.020000e-05,
6.730896e+01, 2.775712e+01, 8.932766e+00, 4.548983e-01, 2.422932e+00,-4.412086e+00, -1.177764e+00, 5.273293e-01,2.100000e-05, -2.610000e-05, -7.500000e-06,
6.741248e+01, 2.785297e+01, 8.094796e+00, 9.864111e-01, 5.075708e-01,1.901743e+00, -1.718950e+00, -3.773109e-01,2.715000e-05, -2.535000e-05, 3.000000e-07,
6.751710e+01, 2.814050e+01, 7.362170e+00, 8.714894e-01, 1.115698e+00,2.681146e+00, 7.402328e-01, -1.060254e+00,2.775000e-05, -3.390000e-05, 5.100000e-06,
6.762057e+01, 2.809258e+01, 9.325415e+00, 4.094085e-01, 2.298434e-01,-3.703829e-01, 6.970659e-01, 1.436233e-01,2.835000e-05, -3.450000e-05, 6.000000e-06,
6.772400e+01, 2.809258e+01, 1.059195e+01, -1.422156e+00, 8.530541e+00,1.330980e+00, 3.400061e-01, 1.337642e-01,3.000000e-05, -3.405000e-05, 9.450000e-06,
6.782743e+01, 2.828427e+01, 9.619902e+00, 2.178724e-01, -2.082955e-01,3.069381e+00, -3.935651e-01, 1.252640e+00,3.120000e-05, -3.945000e-05, 9.900000e-06,
6.793087e+01, 2.804466e+01, 9.088390e+00, 1.508347e-01, 1.539472e+00,2.106652e+00, 7.357029e-01, 9.779173e-02,2.895000e-05, -3.885000e-05, 1.050000e-05,
6.803430e+01, 2.804466e+01, 1.034295e+01, 0.000000e+00, 2.473210e+00,2.588950e+00, 3.871700e-01, -5.859510e-01,2.775000e-05, -4.755000e-05, 9.300000e-06,
6.813770e+01, 2.823635e+01, 9.847351e+00, 5.027823e-01, 1.235408e+00,8.758622e-01, -6.760153e-01, 1.556141e+00,2.970000e-05, -4.530000e-05, 1.380000e-05,
6.824115e+01, 2.804466e+01, 1.031422e+01, -4.094085e-01, 9.265560e-01,1.314193e+00, -7.202481e-01, 1.468208e+00,3.195000e-05, -4.515000e-05, 2.130000e-05,
6.834457e+01, 2.804466e+01, 1.173877e+01, -2.042254e+00, -3.062184e+00,3.062187e+00, -2.717384e+00, 2.224429e+00,3.270000e-05, -3.825000e-05, 3.540000e-05,
6.844801e+01, 2.804466e+01, 8.779537e+00, -2.820370e+00, -3.023877e+00,4.982049e+00, -3.461348e-01, 4.591149e-01,2.970000e-05, -3.315000e-05, 4.830000e-05,
6.855141e+01, 2.804466e+01, 9.603143e+00, -3.023877e+00, 2.394202e-03,3.247911e+00, 4.516539e-01, 1.216135e+00,3.135000e-05, -2.055000e-05, 4.095000e-05,
6.865486e+01, 2.775712e+01, 7.735666e+00, -2.695871e+00, 2.755726e+00,5.404126e+00, 1.276355e+00, 1.033874e-01,3.195000e-05, -1.590000e-05, 3.885000e-05,
6.875830e+01, 2.814050e+01, 9.153033e+00, -4.223372e+00, 2.185906e+00,-2.344870e-02, -8.452190e-01, 3.096294e-01,3.150000e-05, -1.740000e-05, 3.360000e-05,
6.886174e+01, 2.804466e+01, 8.449138e+00, -3.478775e+00, 1.534683e+00,-1.479133e+00, 1.446891e-01, 1.692037e+00,3.090000e-05, -8.400000e-06, 3.675000e-05,
6.896517e+01, 2.809258e+01, 6.967127e+00, -1.308671e+01, 1.030704e+01,1.662726e+00, -6.626922e-01, -3.266830e-01,2.895000e-05, -8.850000e-06, 3.870000e-05,
6.906858e+01, 2.804466e+01, 7.826645e+00, -3.696647e+00, 4.115633e+00,-7.807351e-02, 3.069648e-01, -4.737703e-01,3.000000e-05, -8.250000e-06, 2.520000e-05,
6.917199e+01, 2.823635e+01, 9.064447e+00, -2.829946e+00, 4.467580e+00,2.975320e+00, -1.046398e+00, 8.622726e-01,3.090000e-05, -1.305000e-05, 1.620000e-05,
6.927536e+01, 2.790089e+01, 7.283161e+00, -3.974375e-01, 3.383007e+00,4.504015e+00, 2.985446e+00, 9.454089e-01,2.835000e-05, -1.245000e-05, 1.410000e-05,
6.937886e+01, 2.790089e+01, 8.791508e+00, -3.495534e-01, 6.914454e+00,7.647473e-02, -2.419746e+00, -9.486065e-01,2.775000e-05, -1.725000e-05, 7.050000e-06,
6.948242e+01, 2.814050e+01, 6.244078e+00, 1.867477e+00, 1.080264e+01,2.202312e+00, 2.660095e+00, -6.789464e-01,2.505000e-05, -2.910000e-05, 0.000000e+00,
6.958581e+01, 2.828427e+01, 9.248801e+00, -4.788403e-01, 4.362235e+00,4.539988e+00, 4.300971e+00, 8.731176e+00,2.115000e-05, -3.435000e-05, -5.850000e-06,
6.968926e+01, 2.809258e+01, 8.149862e+00, 3.833117e+00, 4.223372e+00,8.180398e-02, -2.567100e+00, 8.340276e-02,2.040000e-05, -2.895000e-05, -5.400000e-06,
6.979301e+01, 2.809258e+01, 7.536947e+00, 3.509900e+00, 3.926491e+00,4.625789e-01, 8.923829e-01, 1.580123e-01,2.325000e-05, -2.865000e-05, -3.900000e-06,
6.989644e+01, 2.804466e+01, 8.968679e+00, 2.324770e+00, 4.364630e+00,1.161510e+00, 2.371516e+00, 2.203645e-01,2.385000e-05, -2.760000e-05, -2.550000e-06,
6.999984e+01, 2.804466e+01, 9.071630e+00, 2.037466e+00, 3.514688e+00,-9.989679e-01, 1.798888e+00, -4.452588e-01,2.055000e-05, -2.760000e-05, -6.000000e-06,
7.010324e+01, 2.809258e+01, 6.679823e+00, 3.186682e+00, 4.659116e+00,7.953905e-01, -4.004931e-01, -8.191057e-01,2.025000e-05, -3.075000e-05, -5.250000e-06,
7.020669e+01, 2.794881e+01, 6.648698e+00, 4.323928e+00, 5.844246e+00,-7.658132e-01, -6.054028e-01, -1.633149e+00,1.650000e-05, -3.750000e-05, -8.700000e-06,
7.031005e+01, 2.804466e+01, 5.714959e+00, 4.436456e+00, 5.770026e+00,-7.623492e-01, 2.556441e+00, -1.627819e+00,1.005000e-05, -3.795000e-05, -1.260000e-05,
7.041347e+01, 2.823635e+01, 3.423708e+00, 5.810727e+00, 5.920861e+00,-6.056692e-01, 1.541752e+00, -6.485697e-01,-2.400000e-06, -3.795000e-05, -2.010000e-05,
7.051693e+01, 2.838012e+01, 2.066196e+00, 2.873042e+00, 9.244013e+00,-1.180962e+00, 3.503982e-01, -4.287381e-01,-8.250000e-06, -2.700000e-05, -2.385000e-05,
7.062038e+01, 2.823635e+01, -5.291186e-01, 2.217031e+00, 7.309498e+00,-2.644640e+00, 2.659296e-01, -7.594181e-01,-5.400000e-06, -2.025000e-05, -2.190000e-05,
7.072377e+01, 2.790089e+01, 1.271321e+00, 2.142810e+00, 9.629479e+00,-1.584119e+00, -1.841256e-01, -1.293142e+00,-1.950000e-06, -1.815000e-05, -1.905000e-05,
7.082721e+01, 2.842804e+01, 2.422932e+00, -2.298434e-01, 1.021366e+01,-9.653936e-01, -4.585819e-01, -1.171369e+00,2.100000e-06, -1.485000e-05, -1.770000e-05,
7.093064e+01, 2.823635e+01, 2.217031e+00, -8.571242e-01, 1.027352e+01,-3.887688e-01, -1.255305e+00, 1.113813e-01,8.250000e-06, -1.575000e-05, -1.380000e-05,
7.103403e+01, 2.804466e+01, -3.351882e-02, -2.774880e+00, 2.164358e+00,5.747596e+00, 8.731176e+00, 5.404392e+00,6.000000e-06, -1.365000e-05, -1.635000e-05,
7.113741e+01, 2.838012e+01, -5.793968e-01, 1.795651e-01, 1.000537e+01,-2.105054e-02, 1.598775e-02, 6.720184e-01,-1.170000e-05, -9.000000e-06, -2.055000e-05,
7.124085e+01, 2.823635e+01, 0.000000e+00, 5.746084e-02, 9.967062e+00,-2.664625e-02, 2.131700e-02, 6.874732e-02,-1.245000e-05, -9.750000e-06, -1.830000e-05,
7.134441e+01, 2.794881e+01, -1.125275e-01, -4.788403e-03, 1.000776e+01,-9.326187e-03, 6.395100e-03, 8.793262e-03,-1.290000e-05, -1.095000e-05, -1.860000e-05,
7.144783e+01, 2.828427e+01, -1.221043e-01, -3.830723e-02, 1.000297e+01,-1.279020e-02, 9.059725e-03, 6.128637e-03,-1.290000e-05, -9.450000e-06, -1.830000e-05,
7.155129e+01, 2.804466e+01, -8.379706e-02, -1.436521e-02, 1.004368e+01,-1.305666e-02, 5.329250e-03, 6.128637e-03,-1.230000e-05, -9.600000e-06, -1.920000e-05,
7.165473e+01, 2.804466e+01, -1.029507e-01, -2.873042e-02, 9.974244e+00,-1.145789e-02, 5.595712e-03, 6.928025e-03,-1.395000e-05, -8.850000e-06, -1.965000e-05,
7.175822e+01, 2.804466e+01, -8.858546e-02, -7.182605e-02, 1.005804e+01,-1.199081e-02, 1.598775e-03, 5.595712e-03,-1.425000e-05, -9.300000e-06, -1.770000e-05,
7.186169e+01, 2.809258e+01, -1.125275e-01, -4.070143e-02, 9.988609e+00,-1.119142e-02, 3.996937e-03, 4.263400e-03,-1.410000e-05, -9.750000e-06, -1.860000e-05,
7.196515e+01, 2.756543e+01, -1.101333e-01, -4.548983e-02, 9.998186e+00,-7.727412e-03, 9.059725e-03, 7.993875e-03,-1.155000e-05, -1.035000e-05, -1.725000e-05,
7.206853e+01, 2.804466e+01, -1.244985e-01, -8.379706e-02, 1.001016e+01,-1.145789e-02, 2.398162e-03, 8.260337e-03,-1.290000e-05, -9.000000e-06, -1.905000e-05,
7.217191e+01, 2.785297e+01, -1.244985e-01, -6.224924e-02, 9.993398e+00,-1.332312e-02, 5.062787e-03, 7.993875e-03,-1.275000e-05, -9.300000e-06, -1.965000e-05,
7.227650e+01, 2.814050e+01, -1.843535e-01, -6.943185e-02, 1.007959e+01,-1.145789e-02, 8.793262e-03, 2.398162e-03,-1.335000e-05, -9.450000e-06, -1.935000e-05,
7.237995e+01, 2.794881e+01, -8.619126e-02, -5.506664e-02, 1.002931e+01,-7.727412e-03, 6.395100e-03, 3.996937e-03,-1.350000e-05, -9.300000e-06, -1.770000e-05,
7.248335e+01, 2.775712e+01, -1.149217e-01, -9.337386e-02, 1.006762e+01,-1.518836e-02, 4.796325e-03, 1.119142e-02,-1.215000e-05, -1.020000e-05, -1.905000e-05,
7.258678e+01, 2.785297e+01, -1.364695e-01, -3.351882e-02, 1.005565e+01,-1.252374e-02, 6.128637e-03, 6.928025e-03,-1.290000e-05, -1.020000e-05, -1.905000e-05,
7.269017e+01, 2.785297e+01, -1.173159e-01, -6.464344e-02, 1.009156e+01,-6.395100e-03, 4.263400e-03, 5.062787e-03,-1.275000e-05, -1.035000e-05, -2.040000e-05,
7.279360e+01, 2.794881e+01, -1.268927e-01, -5.746084e-02, 1.005325e+01,-9.859112e-03, 4.263400e-03, 4.263400e-03,-1.275000e-05, -9.600000e-06, -1.920000e-05,
7.289700e+01, 2.785297e+01, -5.027823e-02, -6.943185e-02, 1.003649e+01,-6.661562e-03, 3.730475e-03, 4.263400e-03,-1.290000e-05, -9.750000e-06, -1.980000e-05,
7.300044e+01, 2.775712e+01, -1.244985e-01, -2.633622e-02, 1.005804e+01,-1.518836e-02, 6.395100e-03, 1.332312e-03,-1.350000e-05, -1.005000e-05, -1.995000e-05,
7.310383e+01, 2.761335e+01, -1.005565e-01, -6.943185e-02, 1.002931e+01,-1.305666e-02, 3.730475e-03, 5.595712e-03,-1.335000e-05, -9.000000e-06, -1.935000e-05,
7.320725e+01, 2.761335e+01, -9.816227e-02, 4.788403e-03, 1.003170e+01,-8.260337e-03, 2.131700e-03, 2.664625e-03,-1.410000e-05, -9.000000e-06, -2.010000e-05,
7.331066e+01, 2.742166e+01, -1.268927e-01, -4.788403e-02, 1.007480e+01,-9.592650e-03, 5.862175e-03, 3.996937e-03,-1.335000e-05, -9.000000e-06, -1.905000e-05,
